"rt","responses","time_elapsed","subject","demoID","trialType","rlType","attType","stimulus","key_press","stim","corrresp","phase","corr","pracCounter","reward","bandOne","bandTwo","trialNum","attentionNum","attentionRunNum","blockNum","performance","bandChosen","circleVal","squareVal","coin","bandOneVal","bandTwoVal","pReward","shapeChosen","rlNum","badFlag"
"196401","{""Q0"":""msl000091""}","196429","SARL_v6k5sw88ad","msl000091","","","","","","","","","","","","","","","","","","","","","","","","","","","",""
"15191","","211627","SARL_v6k5sw88ad","msl000091","","","","","","","","","","","","","","","","","","","","","","","","","","","",""
"","","213976","SARL_v6k5sw88ad","msl000091","fullscreen","fullscreen","fullscreen","","","","","","","","","","","","","","","","","","","","","","","","",""
"61535","","275516","SARL_v6k5sw88ad","msl000091","","","","","","","","","","","","","","","","","","","","","","","","","","","",""
"null","","276322","SARL_v6k5sw88ad","msl000091","freqPrac","","","img/orange_2bandit_a2.png","null","img/orange_2bandit_a2.png","70","prac","0","1","","","","","","","","","","","","","","","","","",""
"null","","277328","SARL_v6k5sw88ad","msl000091","feedback","","","img/tooSlow.png","null","","na","prac","","","","","","","","","","","","","","","","","","","",""
"null","","277483","SARL_v6k5sw88ad","msl000091","fixation","","","img/fixation.png","null","","","prac","","","","","","","","","","","","","","","","","","","",""
"492","","277980","SARL_v6k5sw88ad","msl000091","infreqPrac","","","img/green_2bandit_a2.png","68","img/green_2bandit_a2.png","68","prac","1","1","","","","","","","","","","","","","","","","","",""
"492","","278293","SARL_v6k5sw88ad","msl000091","infreqPrac_resp","","","img/green_2bandit_a.png","68","img/green_2bandit_a.png","68","prac","","","","","","","","","","","","","","","","","","","",""
"null","","278448","SARL_v6k5sw88ad","msl000091","fixation","","","img/fixation.png","null","","","prac","","","","","","","","","","","","","","","","","","","",""
"505","","278958","SARL_v6k5sw88ad","msl000091","freqPrac","","","img/orange_2bandit_a2.png","70","img/orange_2bandit_a2.png","70","prac","1","1","","","","","","","","","","","","","","","","","",""
"505","","279259","SARL_v6k5sw88ad","msl000091","freqPrac_resp","","","img/orange_2bandit_a.png","70","img/orange_2bandit_a.png","70","prac","","","","","","","","","","","","","","","","","","","",""
"null","","279414","SARL_v6k5sw88ad","msl000091","fixation","","","img/fixation.png","null","","","prac","","","","","","","","","","","","","","","","","","","",""
"538","","279956","SARL_v6k5sw88ad","msl000091","infreqPrac","","","img/green_2bandit_a2.png","68","img/green_2bandit_a2.png","68","prac","1","1","","","","","","","","","","","","","","","","","",""
"538","","280224","SARL_v6k5sw88ad","msl000091","infreqPrac_resp","","","img/green_2bandit_a.png","68","img/green_2bandit_a.png","68","prac","","","","","","","","","","","","","","","","","","","",""
"null","","280380","SARL_v6k5sw88ad","msl000091","fixation","","","img/fixation.png","null","","","prac","","","","","","","","","","","","","","","","","","","",""
"389","","280773","SARL_v6k5sw88ad","msl000091","infreqPrac","","","img/green_2bandit_a2.png","68","img/green_2bandit_a2.png","68","prac","1","1","","","","","","","","","","","","","","","","","",""
"389","","281190","SARL_v6k5sw88ad","msl000091","infreqPrac_resp","","","img/green_2bandit_a.png","68","img/green_2bandit_a.png","68","prac","","","","","","","","","","","","","","","","","","","",""
"null","","281345","SARL_v6k5sw88ad","msl000091","fixation","","","img/fixation.png","null","","","prac","","","","","","","","","","","","","","","","","","","",""
"364","","281714","SARL_v6k5sw88ad","msl000091","infreqPrac","","","img/green_2bandit_a2.png","68","img/green_2bandit_a2.png","68","prac","1","1","","","","","","","","","","","","","","","","","",""
"364","","282155","SARL_v6k5sw88ad","msl000091","infreqPrac_resp","","","img/green_2bandit_a.png","68","img/green_2bandit_a.png","68","prac","","","","","","","","","","","","","","","","","","","",""
"null","","282310","SARL_v6k5sw88ad","msl000091","fixation","","","img/fixation.png","null","","","prac","","","","","","","","","","","","","","","","","","","",""
"442","","282756","SARL_v6k5sw88ad","msl000091","freqPrac","","","img/orange_2bandit_a2.png","70","img/orange_2bandit_a2.png","70","prac","1","1","","","","","","","","","","","","","","","","","",""
"442","","283120","SARL_v6k5sw88ad","msl000091","freqPrac_resp","","","img/orange_2bandit_a.png","70","img/orange_2bandit_a.png","70","prac","","","","","","","","","","","","","","","","","","","",""
"null","","283276","SARL_v6k5sw88ad","msl000091","fixation","","","img/fixation.png","null","","","prac","","","","","","","","","","","","","","","","","","","",""
"520","","283803","SARL_v6k5sw88ad","msl000091","infreqPrac","","","img/green_2bandit_a2.png","68","img/green_2bandit_a2.png","68","prac","1","1","","","","","","","","","","","","","","","","","",""
"520","","284089","SARL_v6k5sw88ad","msl000091","infreqPrac_resp","","","img/green_2bandit_a.png","68","img/green_2bandit_a.png","68","prac","","","","","","","","","","","","","","","","","","","",""
"null","","284244","SARL_v6k5sw88ad","msl000091","fixation","","","img/fixation.png","null","","","prac","","","","","","","","","","","","","","","","","","","",""
"419","","284668","SARL_v6k5sw88ad","msl000091","freqPrac","","","img/orange_2bandit_a2.png","70","img/orange_2bandit_a2.png","70","prac","1","1","","","","","","","","","","","","","","","","","",""
"419","","285055","SARL_v6k5sw88ad","msl000091","freqPrac_resp","","","img/orange_2bandit_a.png","70","img/orange_2bandit_a.png","70","prac","","","","","","","","","","","","","","","","","","","",""
"null","","285211","SARL_v6k5sw88ad","msl000091","fixation","","","img/fixation.png","null","","","prac","","","","","","","","","","","","","","","","","","","",""
"453","","285668","SARL_v6k5sw88ad","msl000091","freqPrac","","","img/orange_2bandit_a2.png","70","img/orange_2bandit_a2.png","70","prac","1","1","","","","","","","","","","","","","","","","","",""
"453","","286021","SARL_v6k5sw88ad","msl000091","freqPrac_resp","","","img/orange_2bandit_a.png","70","img/orange_2bandit_a.png","70","prac","","","","","","","","","","","","","","","","","","","",""
"null","","286177","SARL_v6k5sw88ad","msl000091","fixation","","","img/fixation.png","null","","","prac","","","","","","","","","","","","","","","","","","","",""
"32845","","319026","SARL_v6k5sw88ad","msl000091","","","","","","","","prac","","","","","","","","","","","","","","","","","","","",""
"860","","319892","SARL_v6k5sw88ad","msl000091","rlPractice","","","img/black_2bandit_a2.png","74","img/black_2bandit_a2.png","","prac","","","75","","","","","","","","","","","","","","","","",""
"null","","320648","SARL_v6k5sw88ad","msl000091","feedback","","","img/boo_L_a.png","null","","na","prac","","","","","","","","","","","","","","","","","","","",""
"null","","320804","SARL_v6k5sw88ad","msl000091","fixation","","","img/fixation.png","null","","","prac","","","","","","","","","","","","","","","","","","","",""
"361","","321169","SARL_v6k5sw88ad","msl000091","rlPractice","","","img/black_2bandit_a2.png","75","img/black_2bandit_a2.png","","prac","","","75","","","","","","","","","","","","","","","","",""
"null","","321924","SARL_v6k5sw88ad","msl000091","feedback","","","img/yay_R_a.png","null","","na","prac","","","","","","","","","","","","","","","","","","","",""
"null","","322079","SARL_v6k5sw88ad","msl000091","fixation","","","img/fixation.png","null","","","prac","","","","","","","","","","","","","","","","","","","",""
"340","","322424","SARL_v6k5sw88ad","msl000091","rlPractice","","","img/black_2bandit_a2.png","75","img/black_2bandit_a2.png","","prac","","","75","","","","","","","","","","","","","","","","",""
"null","","323180","SARL_v6k5sw88ad","msl000091","feedback","","","img/yay_R_a.png","null","","na","prac","","","","","","","","","","","","","","","","","","","",""
"null","","323335","SARL_v6k5sw88ad","msl000091","fixation","","","img/fixation.png","null","","","prac","","","","","","","","","","","","","","","","","","","",""
"428","","323768","SARL_v6k5sw88ad","msl000091","rlPractice","","","img/black_2bandit_a2.png","75","img/black_2bandit_a2.png","","prac","","","75","","","","","","","","","","","","","","","","",""
"null","","324525","SARL_v6k5sw88ad","msl000091","feedback","","","img/yay_R_a.png","null","","na","prac","","","","","","","","","","","","","","","","","","","",""
"null","","324680","SARL_v6k5sw88ad","msl000091","fixation","","","img/fixation.png","null","","","prac","","","","","","","","","","","","","","","","","","","",""
"373","","325059","SARL_v6k5sw88ad","msl000091","rlPractice","","","img/black_2bandit_a2.png","75","img/black_2bandit_a2.png","","prac","","","75","","","","","","","","","","","","","","","","",""
"null","","325815","SARL_v6k5sw88ad","msl000091","feedback","","","img/yay_R_a.png","null","","na","prac","","","","","","","","","","","","","","","","","","","",""
"null","","325971","SARL_v6k5sw88ad","msl000091","fixation","","","img/fixation.png","null","","","prac","","","","","","","","","","","","","","","","","","","",""
"384","","326359","SARL_v6k5sw88ad","msl000091","rlPractice","","","img/black_2bandit_a2.png","75","img/black_2bandit_a2.png","","prac","","","75","","","","","","","","","","","","","","","","",""
"null","","327115","SARL_v6k5sw88ad","msl000091","feedback","","","img/yay_R_a.png","null","","na","prac","","","","","","","","","","","","","","","","","","","",""
"null","","327271","SARL_v6k5sw88ad","msl000091","fixation","","","img/fixation.png","null","","","prac","","","","","","","","","","","","","","","","","","","",""
"352","","327628","SARL_v6k5sw88ad","msl000091","rlPractice","","","img/black_2bandit_a2.png","75","img/black_2bandit_a2.png","","prac","","","75","","","","","","","","","","","","","","","","",""
"null","","328382","SARL_v6k5sw88ad","msl000091","feedback","","","img/yay_R_a.png","null","","na","prac","","","","","","","","","","","","","","","","","","","",""
"null","","328539","SARL_v6k5sw88ad","msl000091","fixation","","","img/fixation.png","null","","","prac","","","","","","","","","","","","","","","","","","","",""
"5282","","333824","SARL_v6k5sw88ad","msl000091","","","","","","","","prac","","","","","","","","","","","","","","","","","","","",""
"null","","334630","SARL_v6k5sw88ad","msl000091","mixAttFreqPrac","","","img/orange_2bandit_a2.png","null","img/orange_2bandit_a2.png","70","prac","","","","","","","","","","","","","","","","","","","",""
"null","","334786","SARL_v6k5sw88ad","msl000091","fixation","","","img/fixation.png","null","","","prac","","","","","","","","","","","","","","","","","","","",""
"558","","335349","SARL_v6k5sw88ad","msl000091","mixAttInfreqPrac","","","img/green_2bandit_a2.png","68","img/green_2bandit_a2.png","68","prac","","","","","","","","","","","","","","","","","","","",""
"558","","335597","SARL_v6k5sw88ad","msl000091","infreqPrac_resp","","","img/green_2bandit_a.png","68","img/orange_2bandit_a.png","68","prac","","","","","","","","","","","","","","","","","","","",""
"null","","335753","SARL_v6k5sw88ad","msl000091","fixation","","","img/fixation.png","null","","","prac","","","","","","","","","","","","","","","","","","","",""
"315","","336073","SARL_v6k5sw88ad","msl000091","mixAttInfreqPrac","","","img/green_2bandit_a2.png","68","img/green_2bandit_a2.png","68","prac","","","","","","","","","","","","","","","","","","","",""
"315","","336563","SARL_v6k5sw88ad","msl000091","infreqPrac_resp","","","img/green_2bandit_a.png","68","img/orange_2bandit_a.png","68","prac","","","","","","","","","","","","","","","","","","","",""
"null","","336718","SARL_v6k5sw88ad","msl000091","fixation","","","img/fixation.png","null","","","prac","","","","","","","","","","","","","","","","","","","",""
"313","","337035","SARL_v6k5sw88ad","msl000091","mixAttInfreqPrac","","","img/green_2bandit_a2.png","68","img/green_2bandit_a2.png","68","prac","","","","","","","","","","","","","","","","","","","",""
"313","","337529","SARL_v6k5sw88ad","msl000091","infreqPrac_resp","","","img/green_2bandit_a.png","68","img/orange_2bandit_a.png","68","prac","","","","","","","","","","","","","","","","","","","",""
"null","","337685","SARL_v6k5sw88ad","msl000091","fixation","","","img/fixation.png","null","","","prac","","","","","","","","","","","","","","","","","","","",""
"326","","338015","SARL_v6k5sw88ad","msl000091","mixAttFreqPrac","","","img/orange_2bandit_a2.png","70","img/orange_2bandit_a2.png","70","prac","","","","","","","","","","","","","","","","","","","",""
"326","","338495","SARL_v6k5sw88ad","msl000091","freqPrac_resp","","","img/orange_2bandit_a.png","70","img/orange_2bandit_a.png","70","prac","","","","","","","","","","","","","","","","","","","",""
"null","","338650","SARL_v6k5sw88ad","msl000091","fixation","","","img/fixation.png","null","","","prac","","","","","","","","","","","","","","","","","","","",""
"620","","339274","SARL_v6k5sw88ad","msl000091","mixRLPractice","","","img/black_2bandit_a2.png","75","img/black_2bandit_a2.png","","prac","","","","","","","","","","","","","","","","","","","",""
"null","","340031","SARL_v6k5sw88ad","msl000091","feedback","","","img/yay_R_a.png","null","","na","prac","","","","","","","","","","","","","","","","","","","",""
"null","","340836","SARL_v6k5sw88ad","msl000091","mixAttFreqPrac","","","img/orange_2bandit_a2.png","null","img/orange_2bandit_a2.png","70","prac","","","","","","","","","","","","","","","","","","","",""
"62","","340992","SARL_v6k5sw88ad","msl000091","fixation","","","img/fixation.png","70","","","prac","","","","","","","","","","","","","","","","","","","",""
"614","","341611","SARL_v6k5sw88ad","msl000091","mixAttInfreqPrac","","","img/green_2bandit_a2.png","68","img/green_2bandit_a2.png","68","prac","","","","","","","","","","","","","","","","","","","",""
"614","","341802","SARL_v6k5sw88ad","msl000091","infreqPrac_resp","","","img/green_2bandit_a.png","68","img/orange_2bandit_a.png","68","prac","","","","","","","","","","","","","","","","","","","",""
"null","","341959","SARL_v6k5sw88ad","msl000091","fixation","","","img/fixation.png","null","","","prac","","","","","","","","","","","","","","","","","","","",""
"468","","342431","SARL_v6k5sw88ad","msl000091","mixAttFreqPrac","","","img/orange_2bandit_a2.png","70","img/orange_2bandit_a2.png","70","prac","","","","","","","","","","","","","","","","","","","",""
"468","","342769","SARL_v6k5sw88ad","msl000091","freqPrac_resp","","","img/orange_2bandit_a.png","70","img/orange_2bandit_a.png","70","prac","","","","","","","","","","","","","","","","","","","",""
"null","","342923","SARL_v6k5sw88ad","msl000091","fixation","","","img/fixation.png","null","","","prac","","","","","","","","","","","","","","","","","","","",""
"404","","343332","SARL_v6k5sw88ad","msl000091","mixAttFreqPrac","","","img/orange_2bandit_a2.png","70","img/orange_2bandit_a2.png","70","prac","","","","","","","","","","","","","","","","","","","",""
"404","","343734","SARL_v6k5sw88ad","msl000091","freqPrac_resp","","","img/orange_2bandit_a.png","70","img/orange_2bandit_a.png","70","prac","","","","","","","","","","","","","","","","","","","",""
"null","","343890","SARL_v6k5sw88ad","msl000091","fixation","","","img/fixation.png","null","","","prac","","","","","","","","","","","","","","","","","","","",""
"692","","344587","SARL_v6k5sw88ad","msl000091","mixAttInfreqPrac","","","img/green_2bandit_a2.png","68","img/green_2bandit_a2.png","68","prac","","","","","","","","","","","","","","","","","","","",""
"692","","344701","SARL_v6k5sw88ad","msl000091","infreqPrac_resp","","","img/green_2bandit_a.png","68","img/orange_2bandit_a.png","68","prac","","","","","","","","","","","","","","","","","","","",""
"null","","344857","SARL_v6k5sw88ad","msl000091","fixation","","","img/fixation.png","null","","","prac","","","","","","","","","","","","","","","","","","","",""
"794","","345657","SARL_v6k5sw88ad","msl000091","mixRLPractice","","","img/black_2bandit_a2.png","75","img/black_2bandit_a2.png","","prac","","","","","","","","","","","","","","","","","","","",""
"null","","346412","SARL_v6k5sw88ad","msl000091","feedback","","","img/yay_R_a.png","null","","na","prac","","","","","","","","","","","","","","","","","","","",""
"21605","","368021","SARL_v6k5sw88ad","msl000091","","","","","","","","prac","","","","","","","","","","","","","","","","","","","",""
"557","","368583","SARL_v6k5sw88ad","msl000091","freq","","","img/orange_2bandit_a2.png","68","","70","test","0","","","square","circle","1","1","1","1","0","","","","","","","","","",""
"null","","368832","SARL_v6k5sw88ad","msl000091","freq_resp","","","img/orange_2bandit_a.png","68","img/orange_2bandit_a.png","70","test","","","","","","","","","1","","","","","","","","","","",""
"null","","368988","SARL_v6k5sw88ad","msl000091","fixation","","","img/fixation.png","null","","","test","","","","","","","","","","","","","","","","","","","",""
"380","","369372","SARL_v6k5sw88ad","msl000091","freq","","","img/orange_2bandit_a2.png","70","","70","test","1","","","square","circle","2","2","2","1","0.5","","","","","","","","","",""
"null","","369798","SARL_v6k5sw88ad","msl000091","freq_resp","","","img/orange_2bandit_a.png","70","img/orange_2bandit_a.png","70","test","","","","","","","","","1","","","","","","","","","","",""
"null","","369954","SARL_v6k5sw88ad","msl000091","fixation","","","img/fixation.png","null","","","test","","","","","","","","","","","","","","","","","","","",""
"325","","370284","SARL_v6k5sw88ad","msl000091","freq","","","img/orange_2bandit_a2.png","70","","70","test","1","","","square","circle","3","3","3","1","0.6666666666666666","","","","","","","","","",""
"null","","370765","SARL_v6k5sw88ad","msl000091","freq_resp","","","img/orange_2bandit_a.png","70","img/orange_2bandit_a.png","70","test","","","","","","","","","1","","","","","","","","","","",""
"null","","370920","SARL_v6k5sw88ad","msl000091","fixation","","","img/fixation.png","null","","","test","","","","","","","","","","","","","","","","","","","",""
"364","","371290","SARL_v6k5sw88ad","msl000091","freq","","","img/orange_2bandit_a2.png","70","","70","test","1","","","square","circle","4","4","4","1","0.75","","","","","","","","","",""
"null","","371732","SARL_v6k5sw88ad","msl000091","freq_resp","","","img/orange_2bandit_a.png","70","img/orange_2bandit_a.png","70","test","","","","","","","","","1","","","","","","","","","","",""
"null","","371888","SARL_v6k5sw88ad","msl000091","fixation","","","img/fixation.png","null","","","test","","","","","","","","","","","","","","","","","","","",""
"314","","372206","SARL_v6k5sw88ad","msl000091","freq","","","img/orange_2bandit_a2.png","70","","70","test","1","","","square","circle","5","5","5","1","0.8","","","","","","","","","",""
"null","","372699","SARL_v6k5sw88ad","msl000091","freq_resp","","","img/orange_2bandit_a.png","70","img/orange_2bandit_a.png","70","test","","","","","","","","","1","","","","","","","","","","",""
"null","","372855","SARL_v6k5sw88ad","msl000091","fixation","","","img/fixation.png","null","","","test","","","","","","","","","","","","","","","","","","","",""
"345","","373205","SARL_v6k5sw88ad","msl000091","freq","","","img/orange_2bandit_a2.png","70","","70","test","1","","","square","circle","6","6","6","1","0.8333333333333334","","","","","","","","","",""
"null","","373666","SARL_v6k5sw88ad","msl000091","freq_resp","","","img/orange_2bandit_a.png","70","img/orange_2bandit_a.png","70","test","","","","","","","","","1","","","","","","","","","","",""
"null","","373823","SARL_v6k5sw88ad","msl000091","fixation","","","img/fixation.png","null","","","test","","","","","","","","","","","","","","","","","","","",""
"447","","374275","SARL_v6k5sw88ad","msl000091","infreq","","","img/green_2bandit_a2.png","68","","68","test","1","","","square","circle","7","7","7","1","0.8571428571428571","","","","","","","","","",""
"null","","374635","SARL_v6k5sw88ad","msl000091","infreq_resp","","","img/green_2bandit_a.png","68","img/green_2bandit_a.png","68","test","","","","","","","","","1","","","","","","","","","","",""
"null","","374791","SARL_v6k5sw88ad","msl000091","fixation","","","img/fixation.png","null","","","test","","","","","","","","","","","","","","","","","","","",""
"465","","375262","SARL_v6k5sw88ad","msl000091","freq","","","img/orange_2bandit_a2.png","70","","70","test","1","","","square","circle","8","8","8","1","0.875","","","","","","","","","",""
"null","","375603","SARL_v6k5sw88ad","msl000091","freq_resp","","","img/orange_2bandit_a.png","70","img/orange_2bandit_a.png","70","test","","","","","","","","","1","","","","","","","","","","",""
"null","","375759","SARL_v6k5sw88ad","msl000091","fixation","","","img/fixation.png","null","","","test","","","","","","","","","","","","","","","","","","","",""
"437","","376202","SARL_v6k5sw88ad","msl000091","freq","","","img/orange_2bandit_a2.png","70","","70","test","1","","","square","circle","9","9","9","1","0.8888888888888888","","","","","","","","","",""
"null","","376571","SARL_v6k5sw88ad","msl000091","freq_resp","","","img/orange_2bandit_a.png","70","img/orange_2bandit_a.png","70","test","","","","","","","","","1","","","","","","","","","","",""
"null","","376726","SARL_v6k5sw88ad","msl000091","fixation","","","img/fixation.png","null","","","test","","","","","","","","","","","","","","","","","","","",""
"433","","377165","SARL_v6k5sw88ad","msl000091","freq","","","img/orange_2bandit_a2.png","70","","70","test","1","","","square","circle","10","10","10","1","0.9","","","","","","","","","",""
"null","","377538","SARL_v6k5sw88ad","msl000091","freq_resp","","","img/orange_2bandit_a.png","70","img/orange_2bandit_a.png","70","test","","","","","","","","","1","","","","","","","","","","",""
"null","","377693","SARL_v6k5sw88ad","msl000091","fixation","","","img/fixation.png","null","","","test","","","","","","","","","","","","","","","","","","","",""
"352","","378049","SARL_v6k5sw88ad","msl000091","freq","","","img/orange_2bandit_a2.png","70","","70","test","1","","","square","circle","11","11","11","1","0.9090909090909091","","","","","","","","","",""
"null","","378503","SARL_v6k5sw88ad","msl000091","freq_resp","","","img/orange_2bandit_a.png","70","img/orange_2bandit_a.png","70","test","","","","","","","","","1","","","","","","","","","","",""
"null","","378660","SARL_v6k5sw88ad","msl000091","fixation","","","img/fixation.png","null","","","test","","","","","","","","","","","","","","","","","","","",""
"331","","378995","SARL_v6k5sw88ad","msl000091","freq","","","img/orange_2bandit_a2.png","70","","70","test","1","","","square","circle","12","12","12","1","0.9166666666666666","","","","","","","","","",""
"null","","379470","SARL_v6k5sw88ad","msl000091","freq_resp","","","img/orange_2bandit_a.png","70","img/orange_2bandit_a.png","70","test","","","","","","","","","1","","","","","","","","","","",""
"null","","379626","SARL_v6k5sw88ad","msl000091","fixation","","","img/fixation.png","null","","","test","","","","","","","","","","","","","","","","","","","",""
"298","","379928","SARL_v6k5sw88ad","msl000091","infreq","","","img/green_2bandit_a2.png","70","","68","test","0","","","square","circle","13","13","13","1","0.8461538461538461","","","","","","","","","",""
"null","","380436","SARL_v6k5sw88ad","msl000091","infreq_resp","","","img/green_2bandit_a.png","70","img/green_2bandit_a.png","68","test","","","","","","","","","1","","","","","","","","","","",""
"null","","380593","SARL_v6k5sw88ad","msl000091","fixation","","","img/fixation.png","null","","","test","","","","","","","","","","","","","","","","","","","",""
"562","","381160","SARL_v6k5sw88ad","msl000091","freq","","","img/orange_2bandit_a2.png","70","","70","test","1","","","square","circle","14","14","14","1","0.8571428571428571","","","","","","","","","",""
"null","","381403","SARL_v6k5sw88ad","msl000091","freq_resp","","","img/orange_2bandit_a.png","70","img/orange_2bandit_a.png","70","test","","","","","","","","","1","","","","","","","","","","",""
"null","","381559","SARL_v6k5sw88ad","msl000091","fixation","","","img/fixation.png","null","","","test","","","","","","","","","","","","","","","","","","","",""
"413","","381976","SARL_v6k5sw88ad","msl000091","freq","","","img/orange_2bandit_a2.png","70","","70","test","1","","","square","circle","15","15","15","1","0.8666666666666667","","","","","","","","","",""
"null","","382369","SARL_v6k5sw88ad","msl000091","freq_resp","","","img/orange_2bandit_a.png","70","img/orange_2bandit_a.png","70","test","","","","","","","","","1","","","","","","","","","","",""
"null","","382525","SARL_v6k5sw88ad","msl000091","fixation","","","img/fixation.png","null","","","test","","","","","","","","","","","","","","","","","","","",""
"447","","382977","SARL_v6k5sw88ad","msl000091","freq","","","img/orange_2bandit_a2.png","70","","70","test","1","","","square","circle","16","16","16","1","0.875","","","","","","","","","",""
"null","","383336","SARL_v6k5sw88ad","msl000091","freq_resp","","","img/orange_2bandit_a.png","70","img/orange_2bandit_a.png","70","test","","","","","","","","","1","","","","","","","","","","",""
"null","","383492","SARL_v6k5sw88ad","msl000091","fixation","","","img/fixation.png","null","","","test","","","","","","","","","","","","","","","","","","","",""
"342","","383838","SARL_v6k5sw88ad","msl000091","freq","","","img/orange_2bandit_a2.png","70","","70","test","1","","","square","circle","17","17","17","1","0.8823529411764706","","","","","","","","","",""
"null","","384302","SARL_v6k5sw88ad","msl000091","freq_resp","","","img/orange_2bandit_a.png","70","img/orange_2bandit_a.png","70","test","","","","","","","","","1","","","","","","","","","","",""
"null","","384457","SARL_v6k5sw88ad","msl000091","fixation","","","img/fixation.png","null","","","test","","","","","","","","","","","","","","","","","","","",""
"324","","384787","SARL_v6k5sw88ad","msl000091","freq","","","img/orange_2bandit_a2.png","70","","70","test","1","","","square","circle","18","18","18","1","0.8888888888888888","","","","","","","","","",""
"null","","385268","SARL_v6k5sw88ad","msl000091","freq_resp","","","img/orange_2bandit_a.png","70","img/orange_2bandit_a.png","70","test","","","","","","","","","1","","","","","","","","","","",""
"null","","385423","SARL_v6k5sw88ad","msl000091","fixation","","","img/fixation.png","null","","","test","","","","","","","","","","","","","","","","","","","",""
"307","","385736","SARL_v6k5sw88ad","msl000091","freq","","","img/orange_2bandit_a2.png","70","","70","test","1","","","square","circle","19","19","19","1","0.8947368421052632","","","","","","","","","",""
"null","","386235","SARL_v6k5sw88ad","msl000091","freq_resp","","","img/orange_2bandit_a.png","70","img/orange_2bandit_a.png","70","test","","","","","","","","","1","","","","","","","","","","",""
"null","","386389","SARL_v6k5sw88ad","msl000091","fixation","","","img/fixation.png","null","","","test","","","","","","","","","","","","","","","","","","","",""
"310","","386704","SARL_v6k5sw88ad","msl000091","freq","","","img/orange_2bandit_a2.png","70","","70","test","1","","","square","circle","20","20","20","1","0.9","","","","","","","","","",""
"null","","387200","SARL_v6k5sw88ad","msl000091","freq_resp","","","img/orange_2bandit_a.png","70","img/orange_2bandit_a.png","70","test","","","","","","","","","1","","","","","","","","","","",""
"null","","387356","SARL_v6k5sw88ad","msl000091","fixation","","","img/fixation.png","null","","","test","","","","","","","","","","","","","","","","","","","",""
"336","","387696","SARL_v6k5sw88ad","msl000091","freq","","","img/orange_2bandit_a2.png","70","","70","test","1","","","square","circle","21","21","21","1","0.9047619047619048","","","","","","","","","",""
"null","","388166","SARL_v6k5sw88ad","msl000091","freq_resp","","","img/orange_2bandit_a.png","70","img/orange_2bandit_a.png","70","test","","","","","","","","","1","","","","","","","","","","",""
"null","","388321","SARL_v6k5sw88ad","msl000091","fixation","","","img/fixation.png","null","","","test","","","","","","","","","","","","","","","","","","","",""
"342","","388667","SARL_v6k5sw88ad","msl000091","freq","","","img/orange_2bandit_a2.png","70","","70","test","1","","","square","circle","22","22","22","1","0.9090909090909091","","","","","","","","","",""
"null","","389131","SARL_v6k5sw88ad","msl000091","freq_resp","","","img/orange_2bandit_a.png","70","img/orange_2bandit_a.png","70","test","","","","","","","","","1","","","","","","","","","","",""
"null","","389286","SARL_v6k5sw88ad","msl000091","fixation","","","img/fixation.png","null","","","test","","","","","","","","","","","","","","","","","","","",""
"319","","389610","SARL_v6k5sw88ad","msl000091","freq","","","img/orange_2bandit_a2.png","70","","70","test","1","","","square","circle","23","23","23","1","0.9130434782608695","","","","","","","","","",""
"null","","390096","SARL_v6k5sw88ad","msl000091","freq_resp","","","img/orange_2bandit_a.png","70","img/orange_2bandit_a.png","70","test","","","","","","","","","1","","","","","","","","","","",""
"null","","390252","SARL_v6k5sw88ad","msl000091","fixation","","","img/fixation.png","null","","","test","","","","","","","","","","","","","","","","","","","",""
"null","","391758","SARL_v6k5sw88ad","msl000091","rl","","","img/black_2bandit_a2.png","null","","0","test","","","0","square","circle","24","","0","1","","null","0.2","0.8","0.9906448172337579","0.8","0.2","0","too slow","1","0"
"null","","392515","SARL_v6k5sw88ad","msl000091","feedback","","","img/boo.png","null","","na","test","","","","","","","","","1","","null","0.2","0.8","","","","0","","1",""
"null","","393321","SARL_v6k5sw88ad","msl000091","freq","","","img/orange_2bandit_a2.png","null","","70","test","0","","","square","circle","25","24","1","2","0.875","","","","","","","","","",""
"null","","393476","SARL_v6k5sw88ad","msl000091","fixation","","","img/fixation.png","null","","","test","","","","","","","","","","","","","","","","","","","",""
"null","","394284","SARL_v6k5sw88ad","msl000091","freq","","","img/orange_2bandit_a2.png","null","","70","test","0","","","square","circle","26","25","2","2","0.84","","","","","","","","","",""
"null","","394440","SARL_v6k5sw88ad","msl000091","fixation","","","img/fixation.png","null","","","test","","","","","","","","","","","","","","","","","","","",""
"138","","394582","SARL_v6k5sw88ad","msl000091","freq","","","img/orange_2bandit_a2.png","68","","70","test","0","","","square","circle","27","26","3","2","0.8076923076923077","","","","","","","","","",""
"null","","395250","SARL_v6k5sw88ad","msl000091","freq_resp","","","img/orange_2bandit_a.png","68","img/orange_2bandit_a.png","70","test","","","","","","","","","2","","","","","","","","","","",""
"null","","395406","SARL_v6k5sw88ad","msl000091","fixation","","","img/fixation.png","null","","","test","","","","","","","","","","","","","","","","","","","",""
"300","","395711","SARL_v6k5sw88ad","msl000091","freq","","","img/orange_2bandit_a2.png","70","","70","test","1","","","square","circle","28","27","4","2","0.8148148148148148","","","","","","","","","",""
"null","","396218","SARL_v6k5sw88ad","msl000091","freq_resp","","","img/orange_2bandit_a.png","70","img/orange_2bandit_a.png","70","test","","","","","","","","","2","","","","","","","","","","",""
"null","","396374","SARL_v6k5sw88ad","msl000091","fixation","","","img/fixation.png","null","","","test","","","","","","","","","","","","","","","","","","","",""
"346","","396723","SARL_v6k5sw88ad","msl000091","infreq","","","img/green_2bandit_a2.png","70","","68","test","0","","","square","circle","29","28","5","2","0.7857142857142857","","","","","","","","","",""
"null","","397184","SARL_v6k5sw88ad","msl000091","infreq_resp","","","img/green_2bandit_a.png","70","img/green_2bandit_a.png","68","test","","","","","","","","","2","","","","","","","","","","",""
"null","","397340","SARL_v6k5sw88ad","msl000091","fixation","","","img/fixation.png","null","","","test","","","","","","","","","","","","","","","","","","","",""
"439","","397784","SARL_v6k5sw88ad","msl000091","freq","","","img/orange_2bandit_a2.png","70","","70","test","1","","","square","circle","30","29","6","2","0.7931034482758621","","","","","","","","","",""
"null","","398150","SARL_v6k5sw88ad","msl000091","freq_resp","","","img/orange_2bandit_a.png","70","img/orange_2bandit_a.png","70","test","","","","","","","","","2","","","","","","","","","","",""
"null","","398305","SARL_v6k5sw88ad","msl000091","fixation","","","img/fixation.png","null","","","test","","","","","","","","","","","","","","","","","","","",""
"393","","398702","SARL_v6k5sw88ad","msl000091","freq","","","img/orange_2bandit_a2.png","70","","70","test","1","","","square","circle","31","30","7","2","0.8","","","","","","","","","",""
"null","","399115","SARL_v6k5sw88ad","msl000091","freq_resp","","","img/orange_2bandit_a.png","70","img/orange_2bandit_a.png","70","test","","","","","","","","","2","","","","","","","","","","",""
"null","","399270","SARL_v6k5sw88ad","msl000091","fixation","","","img/fixation.png","null","","","test","","","","","","","","","","","","","","","","","","","",""
"374","","399650","SARL_v6k5sw88ad","msl000091","freq","","","img/orange_2bandit_a2.png","70","","70","test","1","","","square","circle","32","31","8","2","0.8064516129032258","","","","","","","","","",""
"null","","400081","SARL_v6k5sw88ad","msl000091","freq_resp","","","img/orange_2bandit_a.png","70","img/orange_2bandit_a.png","70","test","","","","","","","","","2","","","","","","","","","","",""
"null","","400237","SARL_v6k5sw88ad","msl000091","fixation","","","img/fixation.png","null","","","test","","","","","","","","","","","","","","","","","","","",""
"405","","400648","SARL_v6k5sw88ad","msl000091","freq","","","img/orange_2bandit_a2.png","70","","70","test","1","","","square","circle","33","32","9","2","0.8125","","","","","","","","","",""
"null","","401048","SARL_v6k5sw88ad","msl000091","freq_resp","","","img/orange_2bandit_a.png","70","img/orange_2bandit_a.png","70","test","","","","","","","","","2","","","","","","","","","","",""
"null","","401204","SARL_v6k5sw88ad","msl000091","fixation","","","img/fixation.png","null","","","test","","","","","","","","","","","","","","","","","","","",""
"362","","401570","SARL_v6k5sw88ad","msl000091","freq","","","img/orange_2bandit_a2.png","70","","70","test","1","","","square","circle","34","33","10","2","0.8181818181818182","","","","","","","","","",""
"null","","402015","SARL_v6k5sw88ad","msl000091","freq_resp","","","img/orange_2bandit_a.png","70","img/orange_2bandit_a.png","70","test","","","","","","","","","2","","","","","","","","","","",""
"null","","402170","SARL_v6k5sw88ad","msl000091","fixation","","","img/fixation.png","null","","","test","","","","","","","","","","","","","","","","","","","",""
"354","","402530","SARL_v6k5sw88ad","msl000091","freq","","","img/orange_2bandit_a2.png","70","","70","test","1","","","square","circle","35","34","11","2","0.8235294117647058","","","","","","","","","",""
"null","","402982","SARL_v6k5sw88ad","msl000091","freq_resp","","","img/orange_2bandit_a.png","70","img/orange_2bandit_a.png","70","test","","","","","","","","","2","","","","","","","","","","",""
"null","","403137","SARL_v6k5sw88ad","msl000091","fixation","","","img/fixation.png","null","","","test","","","","","","","","","","","","","","","","","","","",""
"382","","403523","SARL_v6k5sw88ad","msl000091","freq","","","img/orange_2bandit_a2.png","70","","70","test","1","","","square","circle","36","35","12","2","0.8285714285714286","","","","","","","","","",""
"null","","403948","SARL_v6k5sw88ad","msl000091","freq_resp","","","img/orange_2bandit_a.png","70","img/orange_2bandit_a.png","70","test","","","","","","","","","2","","","","","","","","","","",""
"null","","404104","SARL_v6k5sw88ad","msl000091","fixation","","","img/fixation.png","null","","","test","","","","","","","","","","","","","","","","","","","",""
"344","","404451","SARL_v6k5sw88ad","msl000091","freq","","","img/orange_2bandit_a2.png","70","","70","test","1","","","square","circle","37","36","13","2","0.8333333333333334","","","","","","","","","",""
"null","","404913","SARL_v6k5sw88ad","msl000091","freq_resp","","","img/orange_2bandit_a.png","70","img/orange_2bandit_a.png","70","test","","","","","","","","","2","","","","","","","","","","",""
"null","","405067","SARL_v6k5sw88ad","msl000091","fixation","","","img/fixation.png","null","","","test","","","","","","","","","","","","","","","","","","","",""
"593","","405666","SARL_v6k5sw88ad","msl000091","infreq","","","img/green_2bandit_a2.png","68","","68","test","1","","","square","circle","38","37","14","2","0.8378378378378378","","","","","","","","","",""
"null","","405879","SARL_v6k5sw88ad","msl000091","infreq_resp","","","img/green_2bandit_a.png","68","img/green_2bandit_a.png","68","test","","","","","","","","","2","","","","","","","","","","",""
"null","","406034","SARL_v6k5sw88ad","msl000091","fixation","","","img/fixation.png","null","","","test","","","","","","","","","","","","","","","","","","","",""
"681","","406719","SARL_v6k5sw88ad","msl000091","freq","","","img/orange_2bandit_a2.png","70","","70","test","1","","","square","circle","39","38","15","2","0.8421052631578947","","","","","","","","","",""
"null","","406843","SARL_v6k5sw88ad","msl000091","freq_resp","","","img/orange_2bandit_a.png","70","img/orange_2bandit_a.png","70","test","","","","","","","","","2","","","","","","","","","","",""
"null","","406998","SARL_v6k5sw88ad","msl000091","fixation","","","img/fixation.png","null","","","test","","","","","","","","","","","","","","","","","","","",""
"null","","407803","SARL_v6k5sw88ad","msl000091","freq","","","img/orange_2bandit_a2.png","null","","70","test","0","","","square","circle","40","39","16","2","0.8205128205128205","","","","","","","","","",""
"null","","407959","SARL_v6k5sw88ad","msl000091","fixation","","","img/fixation.png","null","","","test","","","","","","","","","","","","","","","","","","","",""
"null","","408764","SARL_v6k5sw88ad","msl000091","freq","","","img/orange_2bandit_a2.png","null","","70","test","0","","","square","circle","41","40","17","2","0.8","","","","","","","","","",""
"null","","408919","SARL_v6k5sw88ad","msl000091","fixation","","","img/fixation.png","null","","","test","","","","","","","","","","","","","","","","","","","",""
"390","","409313","SARL_v6k5sw88ad","msl000091","freq","","","img/orange_2bandit_a2.png","68","","70","test","0","","","square","circle","42","41","18","2","0.7804878048780488","","","","","","","","","",""
"null","","409729","SARL_v6k5sw88ad","msl000091","freq_resp","","","img/orange_2bandit_a.png","68","img/orange_2bandit_a.png","70","test","","","","","","","","","2","","","","","","","","","","",""
"null","","409883","SARL_v6k5sw88ad","msl000091","fixation","","","img/fixation.png","null","","","test","","","","","","","","","","","","","","","","","","","",""
"516","","410403","SARL_v6k5sw88ad","msl000091","infreq","","","img/green_2bandit_a2.png","70","","68","test","0","","","square","circle","43","42","19","2","0.7619047619047619","","","","","","","","","",""
"null","","410693","SARL_v6k5sw88ad","msl000091","infreq_resp","","","img/green_2bandit_a.png","70","img/green_2bandit_a.png","68","test","","","","","","","","","2","","","","","","","","","","",""
"null","","410849","SARL_v6k5sw88ad","msl000091","fixation","","","img/fixation.png","null","","","test","","","","","","","","","","","","","","","","","","","",""
"473","","411326","SARL_v6k5sw88ad","msl000091","freq","","","img/orange_2bandit_a2.png","70","","70","test","1","","","square","circle","44","43","20","2","0.7674418604651163","","","","","","","","","",""
"null","","411659","SARL_v6k5sw88ad","msl000091","freq_resp","","","img/orange_2bandit_a.png","70","img/orange_2bandit_a.png","70","test","","","","","","","","","2","","","","","","","","","","",""
"null","","411815","SARL_v6k5sw88ad","msl000091","fixation","","","img/fixation.png","null","","","test","","","","","","","","","","","","","","","","","","","",""
"440","","412260","SARL_v6k5sw88ad","msl000091","freq","","","img/orange_2bandit_a2.png","70","","70","test","1","","","square","circle","45","44","21","2","0.7727272727272727","","","","","","","","","",""
"null","","412625","SARL_v6k5sw88ad","msl000091","freq_resp","","","img/orange_2bandit_a.png","70","img/orange_2bandit_a.png","70","test","","","","","","","","","2","","","","","","","","","","",""
"null","","412780","SARL_v6k5sw88ad","msl000091","fixation","","","img/fixation.png","null","","","test","","","","","","","","","","","","","","","","","","","",""
"348","","413134","SARL_v6k5sw88ad","msl000091","freq","","","img/orange_2bandit_a2.png","70","","70","test","1","","","square","circle","46","45","22","2","0.7777777777777778","","","","","","","","","",""
"null","","413591","SARL_v6k5sw88ad","msl000091","freq_resp","","","img/orange_2bandit_a.png","70","img/orange_2bandit_a.png","70","test","","","","","","","","","2","","","","","","","","","","",""
"null","","413746","SARL_v6k5sw88ad","msl000091","fixation","","","img/fixation.png","null","","","test","","","","","","","","","","","","","","","","","","","",""
"729","","414481","SARL_v6k5sw88ad","msl000091","rl","","","img/black_2bandit_a2.png","75","","0","test","","","0","square","circle","47","","0","2","","75","0.2","0.8","0.5983230185320288","0.8","0.2","0.2","circle","2","0"
"null","","415237","SARL_v6k5sw88ad","msl000091","feedback","","","img/boo_R_a.png","null","","na","test","","","","","","","","","2","","75","0.2","0.8","","","","0.2","","2",""
"586","","415827","SARL_v6k5sw88ad","msl000091","freq","","","img/orange_2bandit_a2.png","70","","70","test","1","","","square","circle","48","46","1","3","0.782608695652174","","","","","","","","","",""
"null","","416047","SARL_v6k5sw88ad","msl000091","freq_resp","","","img/orange_2bandit_a.png","70","img/orange_2bandit_a.png","70","test","","","","","","","","","3","","","","","","","","","","",""
"null","","416203","SARL_v6k5sw88ad","msl000091","fixation","","","img/fixation.png","null","","","test","","","","","","","","","","","","","","","","","","","",""
"488","","416697","SARL_v6k5sw88ad","msl000091","freq","","","img/orange_2bandit_a2.png","70","","70","test","1","","","square","circle","49","47","2","3","0.7872340425531915","","","","","","","","","",""
"null","","417014","SARL_v6k5sw88ad","msl000091","freq_resp","","","img/orange_2bandit_a.png","70","img/orange_2bandit_a.png","70","test","","","","","","","","","3","","","","","","","","","","",""
"null","","417170","SARL_v6k5sw88ad","msl000091","fixation","","","img/fixation.png","null","","","test","","","","","","","","","","","","","","","","","","","",""
"290","","417466","SARL_v6k5sw88ad","msl000091","freq","","","img/orange_2bandit_a2.png","68","","70","test","0","","","square","circle","50","48","3","3","0.7708333333333334","","","","","","","","","",""
"null","","417980","SARL_v6k5sw88ad","msl000091","freq_resp","","","img/orange_2bandit_a.png","68","img/orange_2bandit_a.png","70","test","","","","","","","","","3","","","","","","","","","","",""
"null","","418137","SARL_v6k5sw88ad","msl000091","fixation","","","img/fixation.png","null","","","test","","","","","","","","","","","","","","","","","","","",""
"794","","418935","SARL_v6k5sw88ad","msl000091","freq","","","img/orange_2bandit_a2.png","68","","70","test","0","","","square","circle","51","49","4","3","0.7551020408163265","","","","","","","","","",""
"null","","418947","SARL_v6k5sw88ad","msl000091","freq_resp","","","img/orange_2bandit_a.png","68","img/orange_2bandit_a.png","70","test","","","","","","","","","3","","","","","","","","","","",""
"null","","419103","SARL_v6k5sw88ad","msl000091","fixation","","","img/fixation.png","null","","","test","","","","","","","","","","","","","","","","","","","",""
"null","","419907","SARL_v6k5sw88ad","msl000091","freq","","","img/orange_2bandit_a2.png","null","","70","test","0","","","square","circle","52","50","5","3","0.74","","","","","","","","","",""
"null","","420063","SARL_v6k5sw88ad","msl000091","fixation","","","img/fixation.png","null","","","test","","","","","","","","","","","","","","","","","","","",""
"14","","420082","SARL_v6k5sw88ad","msl000091","freq","","","img/orange_2bandit_a2.png","70","","70","test","1","","","square","circle","53","51","6","3","0.7450980392156863","","","","","","","","","",""
"null","","420873","SARL_v6k5sw88ad","msl000091","freq_resp","","","img/orange_2bandit_a.png","70","img/orange_2bandit_a.png","70","test","","","","","","","","","3","","","","","","","","","","",""
"null","","421028","SARL_v6k5sw88ad","msl000091","fixation","","","img/fixation.png","null","","","test","","","","","","","","","","","","","","","","","","","",""
"457","","421490","SARL_v6k5sw88ad","msl000091","infreq","","","img/green_2bandit_a2.png","68","","68","test","1","","","square","circle","54","52","7","3","0.75","","","","","","","","","",""
"null","","421839","SARL_v6k5sw88ad","msl000091","infreq_resp","","","img/green_2bandit_a.png","68","img/green_2bandit_a.png","68","test","","","","","","","","","3","","","","","","","","","","",""
"null","","421994","SARL_v6k5sw88ad","msl000091","fixation","","","img/fixation.png","null","","","test","","","","","","","","","","","","","","","","","","","",""
"377","","422377","SARL_v6k5sw88ad","msl000091","freq","","","img/orange_2bandit_a2.png","70","","70","test","1","","","square","circle","55","53","8","3","0.7547169811320755","","","","","","","","","",""
"null","","422806","SARL_v6k5sw88ad","msl000091","freq_resp","","","img/orange_2bandit_a.png","70","img/orange_2bandit_a.png","70","test","","","","","","","","","3","","","","","","","","","","",""
"null","","422962","SARL_v6k5sw88ad","msl000091","fixation","","","img/fixation.png","null","","","test","","","","","","","","","","","","","","","","","","","",""
"335","","423300","SARL_v6k5sw88ad","msl000091","freq","","","img/orange_2bandit_a2.png","70","","70","test","1","","","square","circle","56","54","9","3","0.7592592592592593","","","","","","","","","",""
"null","","423771","SARL_v6k5sw88ad","msl000091","freq_resp","","","img/orange_2bandit_a.png","70","img/orange_2bandit_a.png","70","test","","","","","","","","","3","","","","","","","","","","",""
"null","","423927","SARL_v6k5sw88ad","msl000091","fixation","","","img/fixation.png","null","","","test","","","","","","","","","","","","","","","","","","","",""
"354","","424286","SARL_v6k5sw88ad","msl000091","freq","","","img/orange_2bandit_a2.png","70","","70","test","1","","","square","circle","57","55","10","3","0.7636363636363637","","","","","","","","","",""
"null","","424737","SARL_v6k5sw88ad","msl000091","freq_resp","","","img/orange_2bandit_a.png","70","img/orange_2bandit_a.png","70","test","","","","","","","","","3","","","","","","","","","","",""
"null","","424893","SARL_v6k5sw88ad","msl000091","fixation","","","img/fixation.png","null","","","test","","","","","","","","","","","","","","","","","","","",""
"355","","425253","SARL_v6k5sw88ad","msl000091","freq","","","img/orange_2bandit_a2.png","70","","70","test","1","","","square","circle","58","56","11","3","0.7678571428571429","","","","","","","","","",""
"null","","425702","SARL_v6k5sw88ad","msl000091","freq_resp","","","img/orange_2bandit_a.png","70","img/orange_2bandit_a.png","70","test","","","","","","","","","3","","","","","","","","","","",""
"null","","425858","SARL_v6k5sw88ad","msl000091","fixation","","","img/fixation.png","null","","","test","","","","","","","","","","","","","","","","","","","",""
"337","","426200","SARL_v6k5sw88ad","msl000091","freq","","","img/orange_2bandit_a2.png","70","","70","test","1","","","square","circle","59","57","12","3","0.7719298245614035","","","","","","","","","",""
"null","","426668","SARL_v6k5sw88ad","msl000091","freq_resp","","","img/orange_2bandit_a.png","70","img/orange_2bandit_a.png","70","test","","","","","","","","","3","","","","","","","","","","",""
"null","","426825","SARL_v6k5sw88ad","msl000091","fixation","","","img/fixation.png","null","","","test","","","","","","","","","","","","","","","","","","","",""
"339","","427168","SARL_v6k5sw88ad","msl000091","freq","","","img/orange_2bandit_a2.png","70","","70","test","1","","","square","circle","60","58","13","3","0.7758620689655172","","","","","","","","","",""
"null","","427636","SARL_v6k5sw88ad","msl000091","freq_resp","","","img/orange_2bandit_a.png","70","img/orange_2bandit_a.png","70","test","","","","","","","","","3","","","","","","","","","","",""
"null","","427793","SARL_v6k5sw88ad","msl000091","fixation","","","img/fixation.png","null","","","test","","","","","","","","","","","","","","","","","","","",""
"300","","428096","SARL_v6k5sw88ad","msl000091","freq","","","img/orange_2bandit_a2.png","70","","70","test","1","","","square","circle","61","59","14","3","0.7796610169491526","","","","","","","","","",""
"null","","428603","SARL_v6k5sw88ad","msl000091","freq_resp","","","img/orange_2bandit_a.png","70","img/orange_2bandit_a.png","70","test","","","","","","","","","3","","","","","","","","","","",""
"null","","428760","SARL_v6k5sw88ad","msl000091","fixation","","","img/fixation.png","null","","","test","","","","","","","","","","","","","","","","","","","",""
"307","","429071","SARL_v6k5sw88ad","msl000091","infreq","","","img/green_2bandit_a2.png","70","","68","test","0","","","square","circle","62","60","15","3","0.7666666666666667","","","","","","","","","",""
"null","","429570","SARL_v6k5sw88ad","msl000091","infreq_resp","","","img/green_2bandit_a.png","70","img/green_2bandit_a.png","68","test","","","","","","","","","3","","","","","","","","","","",""
"null","","429726","SARL_v6k5sw88ad","msl000091","fixation","","","img/fixation.png","null","","","test","","","","","","","","","","","","","","","","","","","",""
"324","","430054","SARL_v6k5sw88ad","msl000091","freq","","","img/orange_2bandit_a2.png","70","","70","test","1","","","square","circle","63","61","16","3","0.7704918032786885","","","","","","","","","",""
"null","","430535","SARL_v6k5sw88ad","msl000091","freq_resp","","","img/orange_2bandit_a.png","70","img/orange_2bandit_a.png","70","test","","","","","","","","","3","","","","","","","","","","",""
"null","","430691","SARL_v6k5sw88ad","msl000091","fixation","","","img/fixation.png","null","","","test","","","","","","","","","","","","","","","","","","","",""
"332","","431029","SARL_v6k5sw88ad","msl000091","freq","","","img/orange_2bandit_a2.png","70","","70","test","1","","","square","circle","64","62","17","3","0.7741935483870968","","","","","","","","","",""
"null","","431502","SARL_v6k5sw88ad","msl000091","freq_resp","","","img/orange_2bandit_a.png","70","img/orange_2bandit_a.png","70","test","","","","","","","","","3","","","","","","","","","","",""
"null","","431658","SARL_v6k5sw88ad","msl000091","fixation","","","img/fixation.png","null","","","test","","","","","","","","","","","","","","","","","","","",""
"333","","431996","SARL_v6k5sw88ad","msl000091","freq","","","img/orange_2bandit_a2.png","70","","70","test","1","","","square","circle","65","63","18","3","0.7777777777777778","","","","","","","","","",""
"null","","432469","SARL_v6k5sw88ad","msl000091","freq_resp","","","img/orange_2bandit_a.png","70","img/orange_2bandit_a.png","70","test","","","","","","","","","3","","","","","","","","","","",""
"null","","432625","SARL_v6k5sw88ad","msl000091","fixation","","","img/fixation.png","null","","","test","","","","","","","","","","","","","","","","","","","",""
"335","","432965","SARL_v6k5sw88ad","msl000091","freq","","","img/orange_2bandit_a2.png","70","","70","test","1","","","square","circle","66","64","19","3","0.78125","","","","","","","","","",""
"null","","433436","SARL_v6k5sw88ad","msl000091","freq_resp","","","img/orange_2bandit_a.png","70","img/orange_2bandit_a.png","70","test","","","","","","","","","3","","","","","","","","","","",""
"null","","433593","SARL_v6k5sw88ad","msl000091","fixation","","","img/fixation.png","null","","","test","","","","","","","","","","","","","","","","","","","",""
"360","","433958","SARL_v6k5sw88ad","msl000091","freq","","","img/orange_2bandit_a2.png","70","","70","test","1","","","square","circle","67","65","20","3","0.7846153846153846","","","","","","","","","",""
"null","","434403","SARL_v6k5sw88ad","msl000091","freq_resp","","","img/orange_2bandit_a.png","70","img/orange_2bandit_a.png","70","test","","","","","","","","","3","","","","","","","","","","",""
"null","","434560","SARL_v6k5sw88ad","msl000091","fixation","","","img/fixation.png","null","","","test","","","","","","","","","","","","","","","","","","","",""
"679","","435242","SARL_v6k5sw88ad","msl000091","rl","","","img/black_2bandit_a2.png","75","","0","test","","","0","square","circle","68","","0","3","","75","0.2","0.8","0.38575225719845985","0.8","0.2","0.2","circle","3","0"
"null","","435999","SARL_v6k5sw88ad","msl000091","feedback","","","img/boo_R_a.png","null","","na","test","","","","","","","","","3","","75","0.2","0.8","","","","0.2","","3",""
"644","","436648","SARL_v6k5sw88ad","msl000091","freq","","","img/orange_2bandit_a2.png","70","","70","test","1","","","square","circle","69","66","1","4","0.7878787878787878","","","","","","","","","",""
"null","","436809","SARL_v6k5sw88ad","msl000091","freq_resp","","","img/orange_2bandit_a.png","70","img/orange_2bandit_a.png","70","test","","","","","","","","","4","","","","","","","","","","",""
"null","","436964","SARL_v6k5sw88ad","msl000091","fixation","","","img/fixation.png","null","","","test","","","","","","","","","","","","","","","","","","","",""
"413","","437383","SARL_v6k5sw88ad","msl000091","freq","","","img/orange_2bandit_a2.png","70","","70","test","1","","","square","circle","70","67","2","4","0.7910447761194029","","","","","","","","","",""
"null","","437776","SARL_v6k5sw88ad","msl000091","freq_resp","","","img/orange_2bandit_a.png","70","img/orange_2bandit_a.png","70","test","","","","","","","","","4","","","","","","","","","","",""
"null","","437931","SARL_v6k5sw88ad","msl000091","fixation","","","img/fixation.png","null","","","test","","","","","","","","","","","","","","","","","","","",""
"478","","438414","SARL_v6k5sw88ad","msl000091","infreq","","","img/green_2bandit_a2.png","68","","68","test","1","","","square","circle","71","68","3","4","0.7941176470588235","","","","","","","","","",""
"null","","438742","SARL_v6k5sw88ad","msl000091","infreq_resp","","","img/green_2bandit_a.png","68","img/green_2bandit_a.png","68","test","","","","","","","","","4","","","","","","","","","","",""
"null","","438897","SARL_v6k5sw88ad","msl000091","fixation","","","img/fixation.png","null","","","test","","","","","","","","","","","","","","","","","","","",""
"480","","439383","SARL_v6k5sw88ad","msl000091","freq","","","img/orange_2bandit_a2.png","70","","70","test","1","","","square","circle","72","69","4","4","0.7971014492753623","","","","","","","","","",""
"null","","439709","SARL_v6k5sw88ad","msl000091","freq_resp","","","img/orange_2bandit_a.png","70","img/orange_2bandit_a.png","70","test","","","","","","","","","4","","","","","","","","","","",""
"null","","439864","SARL_v6k5sw88ad","msl000091","fixation","","","img/fixation.png","null","","","test","","","","","","","","","","","","","","","","","","","",""
"391","","440261","SARL_v6k5sw88ad","msl000091","freq","","","img/orange_2bandit_a2.png","70","","70","test","1","","","square","circle","73","70","5","4","0.8","","","","","","","","","",""
"null","","440675","SARL_v6k5sw88ad","msl000091","freq_resp","","","img/orange_2bandit_a.png","70","img/orange_2bandit_a.png","70","test","","","","","","","","","4","","","","","","","","","","",""
"null","","440830","SARL_v6k5sw88ad","msl000091","fixation","","","img/fixation.png","null","","","test","","","","","","","","","","","","","","","","","","","",""
"551","","441386","SARL_v6k5sw88ad","msl000091","infreq","","","img/green_2bandit_a2.png","68","","68","test","1","","","square","circle","74","71","6","4","0.8028169014084507","","","","","","","","","",""
"null","","441640","SARL_v6k5sw88ad","msl000091","infreq_resp","","","img/green_2bandit_a.png","68","img/green_2bandit_a.png","68","test","","","","","","","","","4","","","","","","","","","","",""
"null","","441795","SARL_v6k5sw88ad","msl000091","fixation","","","img/fixation.png","null","","","test","","","","","","","","","","","","","","","","","","","",""
"439","","442238","SARL_v6k5sw88ad","msl000091","freq","","","img/orange_2bandit_a2.png","70","","70","test","1","","","square","circle","75","72","7","4","0.8055555555555556","","","","","","","","","",""
"null","","442605","SARL_v6k5sw88ad","msl000091","freq_resp","","","img/orange_2bandit_a.png","70","img/orange_2bandit_a.png","70","test","","","","","","","","","4","","","","","","","","","","",""
"null","","442761","SARL_v6k5sw88ad","msl000091","fixation","","","img/fixation.png","null","","","test","","","","","","","","","","","","","","","","","","","",""
"356","","443121","SARL_v6k5sw88ad","msl000091","freq","","","img/orange_2bandit_a2.png","70","","70","test","1","","","square","circle","76","73","8","4","0.8082191780821918","","","","","","","","","",""
"null","","443571","SARL_v6k5sw88ad","msl000091","freq_resp","","","img/orange_2bandit_a.png","70","img/orange_2bandit_a.png","70","test","","","","","","","","","4","","","","","","","","","","",""
"null","","443728","SARL_v6k5sw88ad","msl000091","fixation","","","img/fixation.png","null","","","test","","","","","","","","","","","","","","","","","","","",""
"365","","444097","SARL_v6k5sw88ad","msl000091","freq","","","img/orange_2bandit_a2.png","70","","70","test","1","","","square","circle","77","74","9","4","0.8108108108108109","","","","","","","","","",""
"null","","444537","SARL_v6k5sw88ad","msl000091","freq_resp","","","img/orange_2bandit_a.png","70","img/orange_2bandit_a.png","70","test","","","","","","","","","4","","","","","","","","","","",""
"null","","444694","SARL_v6k5sw88ad","msl000091","fixation","","","img/fixation.png","null","","","test","","","","","","","","","","","","","","","","","","","",""
"375","","445075","SARL_v6k5sw88ad","msl000091","freq","","","img/orange_2bandit_a2.png","70","","70","test","1","","","square","circle","78","75","10","4","0.8133333333333334","","","","","","","","","",""
"null","","445505","SARL_v6k5sw88ad","msl000091","freq_resp","","","img/orange_2bandit_a.png","70","img/orange_2bandit_a.png","70","test","","","","","","","","","4","","","","","","","","","","",""
"null","","445660","SARL_v6k5sw88ad","msl000091","fixation","","","img/fixation.png","null","","","test","","","","","","","","","","","","","","","","","","","",""
"395","","446058","SARL_v6k5sw88ad","msl000091","freq","","","img/orange_2bandit_a2.png","70","","70","test","1","","","square","circle","79","76","11","4","0.8157894736842105","","","","","","","","","",""
"null","","446470","SARL_v6k5sw88ad","msl000091","freq_resp","","","img/orange_2bandit_a.png","70","img/orange_2bandit_a.png","70","test","","","","","","","","","4","","","","","","","","","","",""
"null","","446627","SARL_v6k5sw88ad","msl000091","fixation","","","img/fixation.png","null","","","test","","","","","","","","","","","","","","","","","","","",""
"450","","447082","SARL_v6k5sw88ad","msl000091","freq","","","img/orange_2bandit_a2.png","70","","70","test","1","","","square","circle","80","77","12","4","0.8181818181818182","","","","","","","","","",""
"null","","447438","SARL_v6k5sw88ad","msl000091","freq_resp","","","img/orange_2bandit_a.png","70","img/orange_2bandit_a.png","70","test","","","","","","","","","4","","","","","","","","","","",""
"null","","447593","SARL_v6k5sw88ad","msl000091","fixation","","","img/fixation.png","null","","","test","","","","","","","","","","","","","","","","","","","",""
"383","","447981","SARL_v6k5sw88ad","msl000091","freq","","","img/orange_2bandit_a2.png","70","","70","test","1","","","square","circle","81","78","13","4","0.8205128205128205","","","","","","","","","",""
"null","","448403","SARL_v6k5sw88ad","msl000091","freq_resp","","","img/orange_2bandit_a.png","70","img/orange_2bandit_a.png","70","test","","","","","","","","","4","","","","","","","","","","",""
"null","","448559","SARL_v6k5sw88ad","msl000091","fixation","","","img/fixation.png","null","","","test","","","","","","","","","","","","","","","","","","","",""
"327","","448892","SARL_v6k5sw88ad","msl000091","freq","","","img/orange_2bandit_a2.png","70","","70","test","1","","","square","circle","82","79","14","4","0.8227848101265823","","","","","","","","","",""
"null","","449371","SARL_v6k5sw88ad","msl000091","freq_resp","","","img/orange_2bandit_a.png","70","img/orange_2bandit_a.png","70","test","","","","","","","","","4","","","","","","","","","","",""
"null","","449526","SARL_v6k5sw88ad","msl000091","fixation","","","img/fixation.png","null","","","test","","","","","","","","","","","","","","","","","","","",""
"317","","449848","SARL_v6k5sw88ad","msl000091","freq","","","img/orange_2bandit_a2.png","70","","70","test","1","","","square","circle","83","80","15","4","0.825","","","","","","","","","",""
"null","","450337","SARL_v6k5sw88ad","msl000091","freq_resp","","","img/orange_2bandit_a.png","70","img/orange_2bandit_a.png","70","test","","","","","","","","","4","","","","","","","","","","",""
"null","","450493","SARL_v6k5sw88ad","msl000091","fixation","","","img/fixation.png","null","","","test","","","","","","","","","","","","","","","","","","","",""
"343","","450839","SARL_v6k5sw88ad","msl000091","freq","","","img/orange_2bandit_a2.png","70","","70","test","1","","","square","circle","84","81","16","4","0.8271604938271605","","","","","","","","","",""
"null","","451301","SARL_v6k5sw88ad","msl000091","freq_resp","","","img/orange_2bandit_a.png","70","img/orange_2bandit_a.png","70","test","","","","","","","","","4","","","","","","","","","","",""
"null","","451457","SARL_v6k5sw88ad","msl000091","fixation","","","img/fixation.png","null","","","test","","","","","","","","","","","","","","","","","","","",""
"555","","452017","SARL_v6k5sw88ad","msl000091","infreq","","","img/green_2bandit_a2.png","68","","68","test","1","","","square","circle","85","82","17","4","0.8292682926829268","","","","","","","","","",""
"null","","452267","SARL_v6k5sw88ad","msl000091","infreq_resp","","","img/green_2bandit_a.png","68","img/green_2bandit_a.png","68","test","","","","","","","","","4","","","","","","","","","","",""
"null","","452423","SARL_v6k5sw88ad","msl000091","fixation","","","img/fixation.png","null","","","test","","","","","","","","","","","","","","","","","","","",""
"515","","452943","SARL_v6k5sw88ad","msl000091","freq","","","img/orange_2bandit_a2.png","70","","70","test","1","","","square","circle","86","83","18","4","0.8313253012048193","","","","","","","","","",""
"null","","453234","SARL_v6k5sw88ad","msl000091","freq_resp","","","img/orange_2bandit_a.png","70","img/orange_2bandit_a.png","70","test","","","","","","","","","4","","","","","","","","","","",""
"null","","453389","SARL_v6k5sw88ad","msl000091","fixation","","","img/fixation.png","null","","","test","","","","","","","","","","","","","","","","","","","",""
"372","","453767","SARL_v6k5sw88ad","msl000091","freq","","","img/orange_2bandit_a2.png","70","","70","test","1","","","square","circle","87","84","19","4","0.8333333333333334","","","","","","","","","",""
"null","","454199","SARL_v6k5sw88ad","msl000091","freq_resp","","","img/orange_2bandit_a.png","70","img/orange_2bandit_a.png","70","test","","","","","","","","","4","","","","","","","","","","",""
"null","","454355","SARL_v6k5sw88ad","msl000091","fixation","","","img/fixation.png","null","","","test","","","","","","","","","","","","","","","","","","","",""
"336","","454696","SARL_v6k5sw88ad","msl000091","freq","","","img/orange_2bandit_a2.png","70","","70","test","1","","","square","circle","88","85","20","4","0.8352941176470589","","","","","","","","","",""
"null","","455165","SARL_v6k5sw88ad","msl000091","freq_resp","","","img/orange_2bandit_a.png","70","img/orange_2bandit_a.png","70","test","","","","","","","","","4","","","","","","","","","","",""
"null","","455320","SARL_v6k5sw88ad","msl000091","fixation","","","img/fixation.png","null","","","test","","","","","","","","","","","","","","","","","","","",""
"274","","455598","SARL_v6k5sw88ad","msl000091","freq","","","img/orange_2bandit_a2.png","70","","70","test","1","","","square","circle","89","86","21","4","0.8372093023255814","","","","","","","","","",""
"null","","456130","SARL_v6k5sw88ad","msl000091","freq_resp","","","img/orange_2bandit_a.png","70","img/orange_2bandit_a.png","70","test","","","","","","","","","4","","","","","","","","","","",""
"null","","456285","SARL_v6k5sw88ad","msl000091","fixation","","","img/fixation.png","null","","","test","","","","","","","","","","","","","","","","","","","",""
"753","","457042","SARL_v6k5sw88ad","msl000091","rl","","","img/black_2bandit_a2.png","75","","0","test","","","0","square","circle","90","","0","4","","75","0.2","0.8","0.5438445301598942","0.8","0.2","0.2","circle","4","0"
"null","","457799","SARL_v6k5sw88ad","msl000091","feedback","","","img/boo_R_a.png","null","","na","test","","","","","","","","","4","","75","0.2","0.8","","","","0.2","","4",""
"null","","458605","SARL_v6k5sw88ad","msl000091","freq","","","img/orange_2bandit_a2.png","null","","70","test","0","","","square","circle","91","87","1","5","0.8275862068965517","","","","","","","","","",""
"null","","458760","SARL_v6k5sw88ad","msl000091","fixation","","","img/fixation.png","null","","","test","","","","","","","","","","","","","","","","","","","",""
"null","","459566","SARL_v6k5sw88ad","msl000091","freq","","","img/orange_2bandit_a2.png","null","","70","test","0","","","square","circle","92","88","2","5","0.8181818181818182","","","","","","","","","",""
"null","","459720","SARL_v6k5sw88ad","msl000091","fixation","","","img/fixation.png","null","","","test","","","","","","","","","","","","","","","","","","","",""
"103","","459828","SARL_v6k5sw88ad","msl000091","freq","","","img/orange_2bandit_a2.png","70","","70","test","1","","","square","circle","93","89","3","5","0.8202247191011236","","","","","","","","","",""
"null","","460531","SARL_v6k5sw88ad","msl000091","freq_resp","","","img/orange_2bandit_a.png","70","img/orange_2bandit_a.png","70","test","","","","","","","","","5","","","","","","","","","","",""
"null","","460686","SARL_v6k5sw88ad","msl000091","fixation","","","img/fixation.png","null","","","test","","","","","","","","","","","","","","","","","","","",""
"477","","461168","SARL_v6k5sw88ad","msl000091","infreq","","","img/green_2bandit_a2.png","68","","68","test","1","","","square","circle","94","90","4","5","0.8222222222222222","","","","","","","","","",""
"null","","461497","SARL_v6k5sw88ad","msl000091","infreq_resp","","","img/green_2bandit_a.png","68","img/green_2bandit_a.png","68","test","","","","","","","","","5","","","","","","","","","","",""
"null","","461652","SARL_v6k5sw88ad","msl000091","fixation","","","img/fixation.png","null","","","test","","","","","","","","","","","","","","","","","","","",""
"431","","462087","SARL_v6k5sw88ad","msl000091","freq","","","img/orange_2bandit_a2.png","70","","70","test","1","","","square","circle","95","91","5","5","0.8241758241758241","","","","","","","","","",""
"null","","462462","SARL_v6k5sw88ad","msl000091","freq_resp","","","img/orange_2bandit_a.png","70","img/orange_2bandit_a.png","70","test","","","","","","","","","5","","","","","","","","","","",""
"null","","462618","SARL_v6k5sw88ad","msl000091","fixation","","","img/fixation.png","null","","","test","","","","","","","","","","","","","","","","","","","",""
"369","","462990","SARL_v6k5sw88ad","msl000091","freq","","","img/orange_2bandit_a2.png","70","","70","test","1","","","square","circle","96","92","6","5","0.8260869565217391","","","","","","","","","",""
"null","","463426","SARL_v6k5sw88ad","msl000091","freq_resp","","","img/orange_2bandit_a.png","70","img/orange_2bandit_a.png","70","test","","","","","","","","","5","","","","","","","","","","",""
"null","","463581","SARL_v6k5sw88ad","msl000091","fixation","","","img/fixation.png","null","","","test","","","","","","","","","","","","","","","","","","","",""
"347","","463933","SARL_v6k5sw88ad","msl000091","freq","","","img/orange_2bandit_a2.png","70","","70","test","1","","","square","circle","97","93","7","5","0.8279569892473119","","","","","","","","","",""
"null","","464391","SARL_v6k5sw88ad","msl000091","freq_resp","","","img/orange_2bandit_a.png","70","img/orange_2bandit_a.png","70","test","","","","","","","","","5","","","","","","","","","","",""
"null","","464547","SARL_v6k5sw88ad","msl000091","fixation","","","img/fixation.png","null","","","test","","","","","","","","","","","","","","","","","","","",""
"357","","464908","SARL_v6k5sw88ad","msl000091","freq","","","img/orange_2bandit_a2.png","70","","70","test","1","","","square","circle","98","94","8","5","0.8297872340425532","","","","","","","","","",""
"null","","465357","SARL_v6k5sw88ad","msl000091","freq_resp","","","img/orange_2bandit_a.png","70","img/orange_2bandit_a.png","70","test","","","","","","","","","5","","","","","","","","","","",""
"null","","465513","SARL_v6k5sw88ad","msl000091","fixation","","","img/fixation.png","null","","","test","","","","","","","","","","","","","","","","","","","",""
"310","","465827","SARL_v6k5sw88ad","msl000091","freq","","","img/orange_2bandit_a2.png","70","","70","test","1","","","square","circle","99","95","9","5","0.8315789473684211","","","","","","","","","",""
"null","","466323","SARL_v6k5sw88ad","msl000091","freq_resp","","","img/orange_2bandit_a.png","70","img/orange_2bandit_a.png","70","test","","","","","","","","","5","","","","","","","","","","",""
"null","","466479","SARL_v6k5sw88ad","msl000091","fixation","","","img/fixation.png","null","","","test","","","","","","","","","","","","","","","","","","","",""
"344","","466829","SARL_v6k5sw88ad","msl000091","freq","","","img/orange_2bandit_a2.png","70","","70","test","1","","","square","circle","100","96","10","5","0.8333333333333334","","","","","","","","","",""
"null","","467291","SARL_v6k5sw88ad","msl000091","freq_resp","","","img/orange_2bandit_a.png","70","img/orange_2bandit_a.png","70","test","","","","","","","","","5","","","","","","","","","","",""
"null","","467446","SARL_v6k5sw88ad","msl000091","fixation","","","img/fixation.png","null","","","test","","","","","","","","","","","","","","","","","","","",""
"286","","467737","SARL_v6k5sw88ad","msl000091","freq","","","img/orange_2bandit_a2.png","70","","70","test","1","","","square","circle","101","97","11","5","0.8350515463917526","","","","","","","","","",""
"null","","468257","SARL_v6k5sw88ad","msl000091","freq_resp","","","img/orange_2bandit_a.png","70","img/orange_2bandit_a.png","70","test","","","","","","","","","5","","","","","","","","","","",""
"null","","468412","SARL_v6k5sw88ad","msl000091","fixation","","","img/fixation.png","null","","","test","","","","","","","","","","","","","","","","","","","",""
"243","","468660","SARL_v6k5sw88ad","msl000091","infreq","","","img/green_2bandit_a2.png","70","","68","test","0","","","square","circle","102","98","12","5","0.826530612244898","","","","","","","","","",""
"null","","469223","SARL_v6k5sw88ad","msl000091","infreq_resp","","","img/green_2bandit_a.png","70","img/green_2bandit_a.png","68","test","","","","","","","","","5","","","","","","","","","","",""
"null","","469379","SARL_v6k5sw88ad","msl000091","fixation","","","img/fixation.png","null","","","test","","","","","","","","","","","","","","","","","","","",""
"345","","469729","SARL_v6k5sw88ad","msl000091","freq","","","img/orange_2bandit_a2.png","70","","70","test","1","","","square","circle","103","99","13","5","0.8282828282828283","","","","","","","","","",""
"null","","470190","SARL_v6k5sw88ad","msl000091","freq_resp","","","img/orange_2bandit_a.png","70","img/orange_2bandit_a.png","70","test","","","","","","","","","5","","","","","","","","","","",""
"null","","470347","SARL_v6k5sw88ad","msl000091","fixation","","","img/fixation.png","null","","","test","","","","","","","","","","","","","","","","","","","",""
"381","","470734","SARL_v6k5sw88ad","msl000091","freq","","","img/orange_2bandit_a2.png","70","","70","test","1","","","square","circle","104","100","14","5","0.83","","","","","","","","","",""
"null","","471158","SARL_v6k5sw88ad","msl000091","freq_resp","","","img/orange_2bandit_a.png","70","img/orange_2bandit_a.png","70","test","","","","","","","","","5","","","","","","","","","","",""
"null","","471315","SARL_v6k5sw88ad","msl000091","fixation","","","img/fixation.png","null","","","test","","","","","","","","","","","","","","","","","","","",""
"323","","471641","SARL_v6k5sw88ad","msl000091","freq","","","img/orange_2bandit_a2.png","70","","70","test","1","","","square","circle","105","101","15","5","0.8316831683168316","","","","","","","","","",""
"null","","472124","SARL_v6k5sw88ad","msl000091","freq_resp","","","img/orange_2bandit_a.png","70","img/orange_2bandit_a.png","70","test","","","","","","","","","5","","","","","","","","","","",""
"null","","472280","SARL_v6k5sw88ad","msl000091","fixation","","","img/fixation.png","null","","","test","","","","","","","","","","","","","","","","","","","",""
"461","","472746","SARL_v6k5sw88ad","msl000091","freq","","","img/orange_2bandit_a2.png","70","","70","test","1","","","square","circle","106","102","16","5","0.8333333333333334","","","","","","","","","",""
"null","","473091","SARL_v6k5sw88ad","msl000091","freq_resp","","","img/orange_2bandit_a.png","70","img/orange_2bandit_a.png","70","test","","","","","","","","","5","","","","","","","","","","",""
"null","","473246","SARL_v6k5sw88ad","msl000091","fixation","","","img/fixation.png","null","","","test","","","","","","","","","","","","","","","","","","","",""
"338","","473590","SARL_v6k5sw88ad","msl000091","freq","","","img/orange_2bandit_a2.png","70","","70","test","1","","","square","circle","107","103","17","5","0.8349514563106796","","","","","","","","","",""
"null","","474058","SARL_v6k5sw88ad","msl000091","freq_resp","","","img/orange_2bandit_a.png","70","img/orange_2bandit_a.png","70","test","","","","","","","","","5","","","","","","","","","","",""
"null","","474213","SARL_v6k5sw88ad","msl000091","fixation","","","img/fixation.png","null","","","test","","","","","","","","","","","","","","","","","","","",""
"315","","474533","SARL_v6k5sw88ad","msl000091","freq","","","img/orange_2bandit_a2.png","70","","70","test","1","","","square","circle","108","104","18","5","0.8365384615384616","","","","","","","","","",""
"null","","475023","SARL_v6k5sw88ad","msl000091","freq_resp","","","img/orange_2bandit_a.png","70","img/orange_2bandit_a.png","70","test","","","","","","","","","5","","","","","","","","","","",""
"null","","475180","SARL_v6k5sw88ad","msl000091","fixation","","","img/fixation.png","null","","","test","","","","","","","","","","","","","","","","","","","",""
"338","","475523","SARL_v6k5sw88ad","msl000091","infreq","","","img/green_2bandit_a2.png","70","","68","test","0","","","square","circle","109","105","19","5","0.8285714285714286","","","","","","","","","",""
"null","","475991","SARL_v6k5sw88ad","msl000091","infreq_resp","","","img/green_2bandit_a.png","70","img/green_2bandit_a.png","68","test","","","","","","","","","5","","","","","","","","","","",""
"null","","476147","SARL_v6k5sw88ad","msl000091","fixation","","","img/fixation.png","null","","","test","","","","","","","","","","","","","","","","","","","",""
"358","","476511","SARL_v6k5sw88ad","msl000091","freq","","","img/orange_2bandit_a2.png","70","","70","test","1","","","square","circle","110","106","20","5","0.8301886792452831","","","","","","","","","",""
"null","","476959","SARL_v6k5sw88ad","msl000091","freq_resp","","","img/orange_2bandit_a.png","70","img/orange_2bandit_a.png","70","test","","","","","","","","","5","","","","","","","","","","",""
"null","","477115","SARL_v6k5sw88ad","msl000091","fixation","","","img/fixation.png","null","","","test","","","","","","","","","","","","","","","","","","","",""
"369","","477489","SARL_v6k5sw88ad","msl000091","freq","","","img/orange_2bandit_a2.png","70","","70","test","1","","","square","circle","111","107","21","5","0.8317757009345794","","","","","","","","","",""
"null","","477925","SARL_v6k5sw88ad","msl000091","freq_resp","","","img/orange_2bandit_a.png","70","img/orange_2bandit_a.png","70","test","","","","","","","","","5","","","","","","","","","","",""
"null","","478080","SARL_v6k5sw88ad","msl000091","fixation","","","img/fixation.png","null","","","test","","","","","","","","","","","","","","","","","","","",""
"566","","478651","SARL_v6k5sw88ad","msl000091","infreq","","","img/green_2bandit_a2.png","68","","68","test","1","","","square","circle","112","108","22","5","0.8333333333333334","","","","","","","","","",""
"null","","478890","SARL_v6k5sw88ad","msl000091","infreq_resp","","","img/green_2bandit_a.png","68","img/green_2bandit_a.png","68","test","","","","","","","","","5","","","","","","","","","","",""
"null","","479045","SARL_v6k5sw88ad","msl000091","fixation","","","img/fixation.png","null","","","test","","","","","","","","","","","","","","","","","","","",""
"531","","479581","SARL_v6k5sw88ad","msl000091","freq","","","img/orange_2bandit_a2.png","70","","70","test","1","","","square","circle","113","109","23","5","0.8348623853211009","","","","","","","","","",""
"null","","479855","SARL_v6k5sw88ad","msl000091","freq_resp","","","img/orange_2bandit_a.png","70","img/orange_2bandit_a.png","70","test","","","","","","","","","5","","","","","","","","","","",""
"null","","480011","SARL_v6k5sw88ad","msl000091","fixation","","","img/fixation.png","null","","","test","","","","","","","","","","","","","","","","","","","",""
"390","","480405","SARL_v6k5sw88ad","msl000091","freq","","","img/orange_2bandit_a2.png","70","","70","test","1","","","square","circle","114","110","24","5","0.8363636363636363","","","","","","","","","",""
"null","","480821","SARL_v6k5sw88ad","msl000091","freq_resp","","","img/orange_2bandit_a.png","70","img/orange_2bandit_a.png","70","test","","","","","","","","","5","","","","","","","","","","",""
"null","","480976","SARL_v6k5sw88ad","msl000091","fixation","","","img/fixation.png","null","","","test","","","","","","","","","","","","","","","","","","","",""
"426","","481408","SARL_v6k5sw88ad","msl000091","freq","","","img/orange_2bandit_a2.png","70","","70","test","1","","","square","circle","115","111","25","5","0.8378378378378378","","","","","","","","","",""
"null","","481788","SARL_v6k5sw88ad","msl000091","freq_resp","","","img/orange_2bandit_a.png","70","img/orange_2bandit_a.png","70","test","","","","","","","","","5","","","","","","","","","","",""
"null","","481943","SARL_v6k5sw88ad","msl000091","fixation","","","img/fixation.png","null","","","test","","","","","","","","","","","","","","","","","","","",""
"594","","482542","SARL_v6k5sw88ad","msl000091","rl","","","img/black_2bandit_a2.png","75","","0","test","","","0","square","circle","116","","0","5","","75","0.2","0.8","0.6373390827025875","0.8","0.2","0.2","circle","5","0"
"null","","483297","SARL_v6k5sw88ad","msl000091","feedback","","","img/boo_R_a.png","null","","na","test","","","","","","","","","5","","75","0.2","0.8","","","","0.2","","5",""
"709","","484013","SARL_v6k5sw88ad","msl000091","freq","","","img/orange_2bandit_a2.png","70","","70","test","1","","","square","circle","117","112","1","6","0.8392857142857143","","","","","","","","","",""
"null","","484109","SARL_v6k5sw88ad","msl000091","freq_resp","","","img/orange_2bandit_a.png","70","img/orange_2bandit_a.png","70","test","","","","","","","","","6","","","","","","","","","","",""
"null","","484264","SARL_v6k5sw88ad","msl000091","fixation","","","img/fixation.png","null","","","test","","","","","","","","","","","","","","","","","","","",""
"703","","484972","SARL_v6k5sw88ad","msl000091","freq","","","img/orange_2bandit_a2.png","70","","70","test","1","","","square","circle","118","113","2","6","0.8407079646017699","","","","","","","","","",""
"null","","485074","SARL_v6k5sw88ad","msl000091","freq_resp","","","img/orange_2bandit_a.png","70","img/orange_2bandit_a.png","70","test","","","","","","","","","6","","","","","","","","","","",""
"null","","485229","SARL_v6k5sw88ad","msl000091","fixation","","","img/fixation.png","null","","","test","","","","","","","","","","","","","","","","","","","",""
"560","","485793","SARL_v6k5sw88ad","msl000091","freq","","","img/orange_2bandit_a2.png","70","","70","test","1","","","square","circle","119","114","3","6","0.8421052631578947","","","","","","","","","",""
"null","","486039","SARL_v6k5sw88ad","msl000091","freq_resp","","","img/orange_2bandit_a.png","70","img/orange_2bandit_a.png","70","test","","","","","","","","","6","","","","","","","","","","",""
"null","","486196","SARL_v6k5sw88ad","msl000091","fixation","","","img/fixation.png","null","","","test","","","","","","","","","","","","","","","","","","","",""
"382","","486582","SARL_v6k5sw88ad","msl000091","freq","","","img/orange_2bandit_a2.png","70","","70","test","1","","","square","circle","120","115","4","6","0.8434782608695652","","","","","","","","","",""
"null","","487004","SARL_v6k5sw88ad","msl000091","freq_resp","","","img/orange_2bandit_a.png","70","img/orange_2bandit_a.png","70","test","","","","","","","","","6","","","","","","","","","","",""
"null","","487160","SARL_v6k5sw88ad","msl000091","fixation","","","img/fixation.png","null","","","test","","","","","","","","","","","","","","","","","","","",""
"315","","487481","SARL_v6k5sw88ad","msl000091","freq","","","img/orange_2bandit_a2.png","70","","70","test","1","","","square","circle","121","116","5","6","0.8448275862068966","","","","","","","","","",""
"null","","487971","SARL_v6k5sw88ad","msl000091","freq_resp","","","img/orange_2bandit_a.png","70","img/orange_2bandit_a.png","70","test","","","","","","","","","6","","","","","","","","","","",""
"null","","488126","SARL_v6k5sw88ad","msl000091","fixation","","","img/fixation.png","null","","","test","","","","","","","","","","","","","","","","","","","",""
"331","","488463","SARL_v6k5sw88ad","msl000091","freq","","","img/orange_2bandit_a2.png","70","","70","test","1","","","square","circle","122","117","6","6","0.8461538461538461","","","","","","","","","",""
"null","","488937","SARL_v6k5sw88ad","msl000091","freq_resp","","","img/orange_2bandit_a.png","70","img/orange_2bandit_a.png","70","test","","","","","","","","","6","","","","","","","","","","",""
"null","","489093","SARL_v6k5sw88ad","msl000091","fixation","","","img/fixation.png","null","","","test","","","","","","","","","","","","","","","","","","","",""
"411","","489508","SARL_v6k5sw88ad","msl000091","freq","","","img/orange_2bandit_a2.png","70","","70","test","1","","","square","circle","123","118","7","6","0.847457627118644","","","","","","","","","",""
"null","","489903","SARL_v6k5sw88ad","msl000091","freq_resp","","","img/orange_2bandit_a.png","70","img/orange_2bandit_a.png","70","test","","","","","","","","","6","","","","","","","","","","",""
"null","","490058","SARL_v6k5sw88ad","msl000091","fixation","","","img/fixation.png","null","","","test","","","","","","","","","","","","","","","","","","","",""
"354","","490416","SARL_v6k5sw88ad","msl000091","freq","","","img/orange_2bandit_a2.png","70","","70","test","1","","","square","circle","124","119","8","6","0.8487394957983193","","","","","","","","","",""
"null","","490868","SARL_v6k5sw88ad","msl000091","freq_resp","","","img/orange_2bandit_a.png","70","img/orange_2bandit_a.png","70","test","","","","","","","","","6","","","","","","","","","","",""
"null","","491025","SARL_v6k5sw88ad","msl000091","fixation","","","img/fixation.png","null","","","test","","","","","","","","","","","","","","","","","","","",""
"385","","491414","SARL_v6k5sw88ad","msl000091","freq","","","img/orange_2bandit_a2.png","70","","70","test","1","","","square","circle","125","120","9","6","0.85","","","","","","","","","",""
"null","","491834","SARL_v6k5sw88ad","msl000091","freq_resp","","","img/orange_2bandit_a.png","70","img/orange_2bandit_a.png","70","test","","","","","","","","","6","","","","","","","","","","",""
"null","","491990","SARL_v6k5sw88ad","msl000091","fixation","","","img/fixation.png","null","","","test","","","","","","","","","","","","","","","","","","","",""
"342","","492338","SARL_v6k5sw88ad","msl000091","freq","","","img/orange_2bandit_a2.png","70","","70","test","1","","","square","circle","126","121","10","6","0.8512396694214877","","","","","","","","","",""
"null","","492801","SARL_v6k5sw88ad","msl000091","freq_resp","","","img/orange_2bandit_a.png","70","img/orange_2bandit_a.png","70","test","","","","","","","","","6","","","","","","","","","","",""
"null","","492956","SARL_v6k5sw88ad","msl000091","fixation","","","img/fixation.png","null","","","test","","","","","","","","","","","","","","","","","","","",""
"300","","493261","SARL_v6k5sw88ad","msl000091","freq","","","img/orange_2bandit_a2.png","70","","70","test","1","","","square","circle","127","122","11","6","0.8524590163934426","","","","","","","","","",""
"null","","493766","SARL_v6k5sw88ad","msl000091","freq_resp","","","img/orange_2bandit_a.png","70","img/orange_2bandit_a.png","70","test","","","","","","","","","6","","","","","","","","","","",""
"null","","493921","SARL_v6k5sw88ad","msl000091","fixation","","","img/fixation.png","null","","","test","","","","","","","","","","","","","","","","","","","",""
"333","","494260","SARL_v6k5sw88ad","msl000091","freq","","","img/orange_2bandit_a2.png","70","","70","test","1","","","square","circle","128","123","12","6","0.8536585365853658","","","","","","","","","",""
"null","","494732","SARL_v6k5sw88ad","msl000091","freq_resp","","","img/orange_2bandit_a.png","70","img/orange_2bandit_a.png","70","test","","","","","","","","","6","","","","","","","","","","",""
"null","","494889","SARL_v6k5sw88ad","msl000091","fixation","","","img/fixation.png","null","","","test","","","","","","","","","","","","","","","","","","","",""
"302","","495195","SARL_v6k5sw88ad","msl000091","freq","","","img/orange_2bandit_a2.png","70","","70","test","1","","","square","circle","129","124","13","6","0.8548387096774194","","","","","","","","","",""
"null","","495698","SARL_v6k5sw88ad","msl000091","freq_resp","","","img/orange_2bandit_a.png","70","img/orange_2bandit_a.png","70","test","","","","","","","","","6","","","","","","","","","","",""
"null","","495853","SARL_v6k5sw88ad","msl000091","fixation","","","img/fixation.png","null","","","test","","","","","","","","","","","","","","","","","","","",""
"388","","496247","SARL_v6k5sw88ad","msl000091","freq","","","img/orange_2bandit_a2.png","70","","70","test","1","","","square","circle","130","125","14","6","0.856","","","","","","","","","",""
"null","","496664","SARL_v6k5sw88ad","msl000091","freq_resp","","","img/orange_2bandit_a.png","70","img/orange_2bandit_a.png","70","test","","","","","","","","","6","","","","","","","","","","",""
"null","","496819","SARL_v6k5sw88ad","msl000091","fixation","","","img/fixation.png","null","","","test","","","","","","","","","","","","","","","","","","","",""
"328","","497152","SARL_v6k5sw88ad","msl000091","freq","","","img/orange_2bandit_a2.png","70","","70","test","1","","","square","circle","131","126","15","6","0.8571428571428571","","","","","","","","","",""
"null","","497628","SARL_v6k5sw88ad","msl000091","freq_resp","","","img/orange_2bandit_a.png","70","img/orange_2bandit_a.png","70","test","","","","","","","","","6","","","","","","","","","","",""
"null","","497785","SARL_v6k5sw88ad","msl000091","fixation","","","img/fixation.png","null","","","test","","","","","","","","","","","","","","","","","","","",""
"639","","498429","SARL_v6k5sw88ad","msl000091","infreq","","","img/green_2bandit_a2.png","68","","68","test","1","","","square","circle","132","127","16","6","0.8582677165354331","","","","","","","","","",""
"null","","498596","SARL_v6k5sw88ad","msl000091","infreq_resp","","","img/green_2bandit_a.png","68","img/green_2bandit_a.png","68","test","","","","","","","","","6","","","","","","","","","","",""
"null","","498752","SARL_v6k5sw88ad","msl000091","fixation","","","img/fixation.png","null","","","test","","","","","","","","","","","","","","","","","","","",""
"486","","499243","SARL_v6k5sw88ad","msl000091","freq","","","img/orange_2bandit_a2.png","70","","70","test","1","","","square","circle","133","128","17","6","0.859375","","","","","","","","","",""
"null","","499563","SARL_v6k5sw88ad","msl000091","freq_resp","","","img/orange_2bandit_a.png","70","img/orange_2bandit_a.png","70","test","","","","","","","","","6","","","","","","","","","","",""
"null","","499719","SARL_v6k5sw88ad","msl000091","fixation","","","img/fixation.png","null","","","test","","","","","","","","","","","","","","","","","","","",""
"453","","500176","SARL_v6k5sw88ad","msl000091","freq","","","img/orange_2bandit_a2.png","70","","70","test","1","","","square","circle","134","129","18","6","0.8604651162790697","","","","","","","","","",""
"null","","500529","SARL_v6k5sw88ad","msl000091","freq_resp","","","img/orange_2bandit_a.png","70","img/orange_2bandit_a.png","70","test","","","","","","","","","6","","","","","","","","","","",""
"null","","500684","SARL_v6k5sw88ad","msl000091","fixation","","","img/fixation.png","null","","","test","","","","","","","","","","","","","","","","","","","",""
"370","","501060","SARL_v6k5sw88ad","msl000091","freq","","","img/orange_2bandit_a2.png","70","","70","test","1","","","square","circle","135","130","19","6","0.8615384615384616","","","","","","","","","",""
"null","","501495","SARL_v6k5sw88ad","msl000091","freq_resp","","","img/orange_2bandit_a.png","70","img/orange_2bandit_a.png","70","test","","","","","","","","","6","","","","","","","","","","",""
"null","","501650","SARL_v6k5sw88ad","msl000091","fixation","","","img/fixation.png","null","","","test","","","","","","","","","","","","","","","","","","","",""
"357","","502013","SARL_v6k5sw88ad","msl000091","freq","","","img/orange_2bandit_a2.png","70","","70","test","1","","","square","circle","136","131","20","6","0.8625954198473282","","","","","","","","","",""
"null","","502462","SARL_v6k5sw88ad","msl000091","freq_resp","","","img/orange_2bandit_a.png","70","img/orange_2bandit_a.png","70","test","","","","","","","","","6","","","","","","","","","","",""
"null","","502617","SARL_v6k5sw88ad","msl000091","fixation","","","img/fixation.png","null","","","test","","","","","","","","","","","","","","","","","","","",""
"318","","502941","SARL_v6k5sw88ad","msl000091","freq","","","img/orange_2bandit_a2.png","70","","70","test","1","","","square","circle","137","132","21","6","0.8636363636363636","","","","","","","","","",""
"null","","503429","SARL_v6k5sw88ad","msl000091","freq_resp","","","img/orange_2bandit_a.png","70","img/orange_2bandit_a.png","70","test","","","","","","","","","6","","","","","","","","","","",""
"null","","503585","SARL_v6k5sw88ad","msl000091","fixation","","","img/fixation.png","null","","","test","","","","","","","","","","","","","","","","","","","",""
"289","","503879","SARL_v6k5sw88ad","msl000091","infreq","","","img/green_2bandit_a2.png","70","","68","test","0","","","square","circle","138","133","22","6","0.8571428571428571","","","","","","","","","",""
"null","","504397","SARL_v6k5sw88ad","msl000091","infreq_resp","","","img/green_2bandit_a.png","70","img/green_2bandit_a.png","68","test","","","","","","","","","6","","","","","","","","","","",""
"null","","504552","SARL_v6k5sw88ad","msl000091","fixation","","","img/fixation.png","null","","","test","","","","","","","","","","","","","","","","","","","",""
"628","","505185","SARL_v6k5sw88ad","msl000091","freq","","","img/orange_2bandit_a2.png","70","","70","test","1","","","square","circle","139","134","23","6","0.8582089552238806","","","","","","","","","",""
"null","","505362","SARL_v6k5sw88ad","msl000091","freq_resp","","","img/orange_2bandit_a.png","70","img/orange_2bandit_a.png","70","test","","","","","","","","","6","","","","","","","","","","",""
"null","","505518","SARL_v6k5sw88ad","msl000091","fixation","","","img/fixation.png","null","","","test","","","","","","","","","","","","","","","","","","","",""
"499","","506022","SARL_v6k5sw88ad","msl000091","rl","","","img/black_2bandit_a2.png","75","","0","test","","","0","square","circle","140","","0","6","","75","0.2","0.8","0.5504061930621267","0.8","0.2","0.2","circle","6","0"
"null","","506779","SARL_v6k5sw88ad","msl000091","feedback","","","img/boo_R_a.png","null","","na","test","","","","","","","","","6","","75","0.2","0.8","","","","0.2","","6",""
"null","","507585","SARL_v6k5sw88ad","msl000091","freq","","","img/orange_2bandit_a2.png","null","","70","test","0","","","square","circle","141","135","1","7","0.8518518518518519","","","","","","","","","",""
"null","","507739","SARL_v6k5sw88ad","msl000091","fixation","","","img/fixation.png","null","","","test","","","","","","","","","","","","","","","","","","","",""
"null","","508545","SARL_v6k5sw88ad","msl000091","infreq","","","img/green_2bandit_a2.png","null","","68","test","0","","","square","circle","142","136","2","7","0.8455882352941176","","","","","","","","","",""
"null","","508700","SARL_v6k5sw88ad","msl000091","fixation","","","img/fixation.png","null","","","test","","","","","","","","","","","","","","","","","","","",""
"null","","509506","SARL_v6k5sw88ad","msl000091","freq","","","img/orange_2bandit_a2.png","null","","70","test","0","","","square","circle","143","137","3","7","0.8394160583941606","","","","","","","","","",""
"null","","509662","SARL_v6k5sw88ad","msl000091","fixation","","","img/fixation.png","null","","","test","","","","","","","","","","","","","","","","","","","",""
"null","","510468","SARL_v6k5sw88ad","msl000091","freq","","","img/orange_2bandit_a2.png","null","","70","test","0","","","square","circle","144","138","4","7","0.8333333333333334","","","","","","","","","",""
"null","","510624","SARL_v6k5sw88ad","msl000091","fixation","","","img/fixation.png","null","","","test","","","","","","","","","","","","","","","","","","","",""
"107","","510737","SARL_v6k5sw88ad","msl000091","freq","","","img/orange_2bandit_a2.png","70","","70","test","1","","","square","circle","145","139","5","7","0.8345323741007195","","","","","","","","","",""
"null","","511436","SARL_v6k5sw88ad","msl000091","freq_resp","","","img/orange_2bandit_a.png","70","img/orange_2bandit_a.png","70","test","","","","","","","","","7","","","","","","","","","","",""
"null","","511592","SARL_v6k5sw88ad","msl000091","fixation","","","img/fixation.png","null","","","test","","","","","","","","","","","","","","","","","","","",""
"106","","511703","SARL_v6k5sw88ad","msl000091","freq","","","img/orange_2bandit_a2.png","70","","70","test","1","","","square","circle","146","140","6","7","0.8357142857142857","","","","","","","","","",""
"null","","512403","SARL_v6k5sw88ad","msl000091","freq_resp","","","img/orange_2bandit_a.png","70","img/orange_2bandit_a.png","70","test","","","","","","","","","7","","","","","","","","","","",""
"null","","512559","SARL_v6k5sw88ad","msl000091","fixation","","","img/fixation.png","null","","","test","","","","","","","","","","","","","","","","","","","",""
"119","","512683","SARL_v6k5sw88ad","msl000091","freq","","","img/orange_2bandit_a2.png","70","","70","test","1","","","square","circle","147","141","7","7","0.8368794326241135","","","","","","","","","",""
"null","","513369","SARL_v6k5sw88ad","msl000091","freq_resp","","","img/orange_2bandit_a.png","70","img/orange_2bandit_a.png","70","test","","","","","","","","","7","","","","","","","","","","",""
"null","","513525","SARL_v6k5sw88ad","msl000091","fixation","","","img/fixation.png","null","","","test","","","","","","","","","","","","","","","","","","","",""
"97","","513627","SARL_v6k5sw88ad","msl000091","freq","","","img/orange_2bandit_a2.png","70","","70","test","1","","","square","circle","148","142","8","7","0.8380281690140845","","","","","","","","","",""
"null","","514334","SARL_v6k5sw88ad","msl000091","freq_resp","","","img/orange_2bandit_a.png","70","img/orange_2bandit_a.png","70","test","","","","","","","","","7","","","","","","","","","","",""
"null","","514489","SARL_v6k5sw88ad","msl000091","fixation","","","img/fixation.png","null","","","test","","","","","","","","","","","","","","","","","","","",""
"109","","514604","SARL_v6k5sw88ad","msl000091","freq","","","img/orange_2bandit_a2.png","70","","70","test","1","","","square","circle","149","143","9","7","0.8391608391608392","","","","","","","","","",""
"null","","515301","SARL_v6k5sw88ad","msl000091","freq_resp","","","img/orange_2bandit_a.png","70","img/orange_2bandit_a.png","70","test","","","","","","","","","7","","","","","","","","","","",""
"null","","515456","SARL_v6k5sw88ad","msl000091","fixation","","","img/fixation.png","null","","","test","","","","","","","","","","","","","","","","","","","",""
"48","","515508","SARL_v6k5sw88ad","msl000091","freq","","","img/orange_2bandit_a2.png","70","","70","test","1","","","square","circle","150","144","10","7","0.8402777777777778","","","","","","","","","",""
"null","","516266","SARL_v6k5sw88ad","msl000091","freq_resp","","","img/orange_2bandit_a.png","70","img/orange_2bandit_a.png","70","test","","","","","","","","","7","","","","","","","","","","",""
"null","","516422","SARL_v6k5sw88ad","msl000091","fixation","","","img/fixation.png","null","","","test","","","","","","","","","","","","","","","","","","","",""
"48","","516477","SARL_v6k5sw88ad","msl000091","freq","","","img/orange_2bandit_a2.png","70","","70","test","1","","","square","circle","151","145","11","7","0.8413793103448276","","","","","","","","","",""
"null","","517234","SARL_v6k5sw88ad","msl000091","freq_resp","","","img/orange_2bandit_a.png","70","img/orange_2bandit_a.png","70","test","","","","","","","","","7","","","","","","","","","","",""
"null","","517390","SARL_v6k5sw88ad","msl000091","fixation","","","img/fixation.png","null","","","test","","","","","","","","","","","","","","","","","","","",""
"92","","517487","SARL_v6k5sw88ad","msl000091","infreq","","","img/green_2bandit_a2.png","70","","68","test","0","","","square","circle","152","146","12","7","0.8356164383561644","","","","","","","","","",""
"null","","518201","SARL_v6k5sw88ad","msl000091","infreq_resp","","","img/green_2bandit_a.png","70","img/green_2bandit_a.png","68","test","","","","","","","","","7","","","","","","","","","","",""
