"rt","responses","time_elapsed","subject","demoID","trialType","rlType","attType","stimulus","key_press","stim","corrresp","phase","corr","pracCounter","reward","bandOne","bandTwo","trialNum","attentionNum","attentionRunNum","blockNum","performance","bandChosen","circleVal","squareVal","coin","bandOneVal","bandTwoVal","pReward","shapeChosen","rlNum","badFlag"
"772857","{""Q0"":""msl000054""}","772886","SARL_v6lgpkenjy","msl000054","","","","","","","","","","","","","","","","","","","","","","","","","","","",""
"31996","","804887","SARL_v6lgpkenjy","msl000054","","","","","","","","","","","","","","","","","","","","","","","","","","","",""
"","","807860","SARL_v6lgpkenjy","msl000054","fullscreen","fullscreen","fullscreen","","","","","","","","","","","","","","","","","","","","","","","","",""
"98248","","906113","SARL_v6lgpkenjy","msl000054","","","","","","","","","","","","","","","","","","","","","","","","","","","",""
"null","","906919","SARL_v6lgpkenjy","msl000054","freqPrac","","","img/green_2bandit_b2.png","null","img/green_2bandit_b2.png","70","prac","0","1","","","","","","","","","","","","","","","","","",""
"null","","907926","SARL_v6lgpkenjy","msl000054","feedback","","","img/tooSlow.png","null","","na","prac","","","","","","","","","","","","","","","","","","","",""
"null","","908082","SARL_v6lgpkenjy","msl000054","fixation","","","img/fixation.png","null","","","prac","","","","","","","","","","","","","","","","","","","",""
"759","","908847","SARL_v6lgpkenjy","msl000054","infreqPrac","","","img/orange_2bandit_b2.png","70","img/orange_2bandit_b2.png","68","prac","0","2","","","","","","","","","","","","","","","","","",""
"759","","908894","SARL_v6lgpkenjy","msl000054","infreqPrac_resp","","","img/orange_2bandit_b.png","70","img/orange_2bandit_b.png","68","prac","","","","","","","","","","","","","","","","","","","",""
"null","","909901","SARL_v6lgpkenjy","msl000054","feedback","","","img/wrongKey.png","null","","na","prac","","","","","","","","","","","","","","","","","","","",""
"null","","910057","SARL_v6lgpkenjy","msl000054","fixation","","","img/fixation.png","null","","","prac","","","","","","","","","","","","","","","","","","","",""
"null","","910862","SARL_v6lgpkenjy","msl000054","freqPrac","","","img/green_2bandit_b2.png","null","img/green_2bandit_b2.png","70","prac","0","3","","","","","","","","","","","","","","","","","",""
"null","","911868","SARL_v6lgpkenjy","msl000054","feedback","","","img/tooSlow.png","null","","na","prac","","","","","","","","","","","","","","","","","","","",""
"null","","912024","SARL_v6lgpkenjy","msl000054","fixation","","","img/fixation.png","null","","","prac","","","","","","","","","","","","","","","","","","","",""
"527","","912557","SARL_v6lgpkenjy","msl000054","infreqPrac","","","img/orange_2bandit_b2.png","68","img/orange_2bandit_b2.png","68","prac","1","3","","","","","","","","","","","","","","","","","",""
"527","","912836","SARL_v6lgpkenjy","msl000054","infreqPrac_resp","","","img/orange_2bandit_b.png","68","img/orange_2bandit_b.png","68","prac","","","","","","","","","","","","","","","","","","","",""
"null","","912992","SARL_v6lgpkenjy","msl000054","fixation","","","img/fixation.png","null","","","prac","","","","","","","","","","","","","","","","","","","",""
"472","","913469","SARL_v6lgpkenjy","msl000054","infreqPrac","","","img/orange_2bandit_b2.png","68","img/orange_2bandit_b2.png","68","prac","1","3","","","","","","","","","","","","","","","","","",""
"472","","913803","SARL_v6lgpkenjy","msl000054","infreqPrac_resp","","","img/orange_2bandit_b.png","68","img/orange_2bandit_b.png","68","prac","","","","","","","","","","","","","","","","","","","",""
"null","","913959","SARL_v6lgpkenjy","msl000054","fixation","","","img/fixation.png","null","","","prac","","","","","","","","","","","","","","","","","","","",""
"352","","914317","SARL_v6lgpkenjy","msl000054","infreqPrac","","","img/orange_2bandit_b2.png","68","img/orange_2bandit_b2.png","68","prac","1","3","","","","","","","","","","","","","","","","","",""
"352","","914771","SARL_v6lgpkenjy","msl000054","infreqPrac_resp","","","img/orange_2bandit_b.png","68","img/orange_2bandit_b.png","68","prac","","","","","","","","","","","","","","","","","","","",""
"null","","914927","SARL_v6lgpkenjy","msl000054","fixation","","","img/fixation.png","null","","","prac","","","","","","","","","","","","","","","","","","","",""
"438","","915370","SARL_v6lgpkenjy","msl000054","freqPrac","","","img/green_2bandit_b2.png","70","img/green_2bandit_b2.png","70","prac","1","3","","","","","","","","","","","","","","","","","",""
"438","","915737","SARL_v6lgpkenjy","msl000054","freqPrac_resp","","","img/green_2bandit_b.png","70","img/green_2bandit_b.png","70","prac","","","","","","","","","","","","","","","","","","","",""
"null","","915893","SARL_v6lgpkenjy","msl000054","fixation","","","img/fixation.png","null","","","prac","","","","","","","","","","","","","","","","","","","",""
"439","","916338","SARL_v6lgpkenjy","msl000054","infreqPrac","","","img/orange_2bandit_b2.png","68","img/orange_2bandit_b2.png","68","prac","1","3","","","","","","","","","","","","","","","","","",""
"439","","916704","SARL_v6lgpkenjy","msl000054","infreqPrac_resp","","","img/orange_2bandit_b.png","68","img/orange_2bandit_b.png","68","prac","","","","","","","","","","","","","","","","","","","",""
"null","","916859","SARL_v6lgpkenjy","msl000054","fixation","","","img/fixation.png","null","","","prac","","","","","","","","","","","","","","","","","","","",""
"444","","917309","SARL_v6lgpkenjy","msl000054","freqPrac","","","img/green_2bandit_b2.png","70","img/green_2bandit_b2.png","70","prac","1","3","","","","","","","","","","","","","","","","","",""
"444","","917670","SARL_v6lgpkenjy","msl000054","freqPrac_resp","","","img/green_2bandit_b.png","70","img/green_2bandit_b.png","70","prac","","","","","","","","","","","","","","","","","","","",""
"null","","917826","SARL_v6lgpkenjy","msl000054","fixation","","","img/fixation.png","null","","","prac","","","","","","","","","","","","","","","","","","","",""
"335","","918166","SARL_v6lgpkenjy","msl000054","freqPrac","","","img/green_2bandit_b2.png","70","img/green_2bandit_b2.png","70","prac","1","3","","","","","","","","","","","","","","","","","",""
"335","","918638","SARL_v6lgpkenjy","msl000054","freqPrac_resp","","","img/green_2bandit_b.png","70","img/green_2bandit_b.png","70","prac","","","","","","","","","","","","","","","","","","","",""
"null","","918793","SARL_v6lgpkenjy","msl000054","fixation","","","img/fixation.png","null","","","prac","","","","","","","","","","","","","","","","","","","",""
"51510","","970308","SARL_v6lgpkenjy","msl000054","","","","","","","","prac","","","","","","","","","","","","","","","","","","","",""
"1023","","971335","SARL_v6lgpkenjy","msl000054","rlPractice","","","img/black_2bandit_b2.png","74","img/black_2bandit_b2.png","","prac","","","75","","","","","","","","","","","","","","","","",""
"null","","972092","SARL_v6lgpkenjy","msl000054","feedback","","","img/boo_L_b.png","null","","na","prac","","","","","","","","","","","","","","","","","","","",""
"null","","972249","SARL_v6lgpkenjy","msl000054","fixation","","","img/fixation.png","null","","","prac","","","","","","","","","","","","","","","","","","","",""
"804","","973057","SARL_v6lgpkenjy","msl000054","rlPractice","","","img/black_2bandit_b2.png","74","img/black_2bandit_b2.png","","prac","","","75","","","","","","","","","","","","","","","","",""
"null","","973812","SARL_v6lgpkenjy","msl000054","feedback","","","img/boo_L_b.png","null","","na","prac","","","","","","","","","","","","","","","","","","","",""
"null","","973968","SARL_v6lgpkenjy","msl000054","fixation","","","img/fixation.png","null","","","prac","","","","","","","","","","","","","","","","","","","",""
"547","","974521","SARL_v6lgpkenjy","msl000054","rlPractice","","","img/black_2bandit_b2.png","75","img/black_2bandit_b2.png","","prac","","","75","","","","","","","","","","","","","","","","",""
"null","","975276","SARL_v6lgpkenjy","msl000054","feedback","","","img/yay_R_b.png","null","","na","prac","","","","","","","","","","","","","","","","","","","",""
"null","","975432","SARL_v6lgpkenjy","msl000054","fixation","","","img/fixation.png","null","","","prac","","","","","","","","","","","","","","","","","","","",""
"479","","975917","SARL_v6lgpkenjy","msl000054","rlPractice","","","img/black_2bandit_b2.png","75","img/black_2bandit_b2.png","","prac","","","75","","","","","","","","","","","","","","","","",""
"null","","976673","SARL_v6lgpkenjy","msl000054","feedback","","","img/yay_R_b.png","null","","na","prac","","","","","","","","","","","","","","","","","","","",""
"null","","976828","SARL_v6lgpkenjy","msl000054","fixation","","","img/fixation.png","null","","","prac","","","","","","","","","","","","","","","","","","","",""
"398","","977231","SARL_v6lgpkenjy","msl000054","rlPractice","","","img/black_2bandit_b2.png","75","img/black_2bandit_b2.png","","prac","","","75","","","","","","","","","","","","","","","","",""
"null","","977988","SARL_v6lgpkenjy","msl000054","feedback","","","img/yay_R_b.png","null","","na","prac","","","","","","","","","","","","","","","","","","","",""
"null","","978144","SARL_v6lgpkenjy","msl000054","fixation","","","img/fixation.png","null","","","prac","","","","","","","","","","","","","","","","","","","",""
"426","","978573","SARL_v6lgpkenjy","msl000054","rlPractice","","","img/black_2bandit_b2.png","75","img/black_2bandit_b2.png","","prac","","","75","","","","","","","","","","","","","","","","",""
"null","","979328","SARL_v6lgpkenjy","msl000054","feedback","","","img/yay_R_b.png","null","","na","prac","","","","","","","","","","","","","","","","","","","",""
"null","","979484","SARL_v6lgpkenjy","msl000054","fixation","","","img/fixation.png","null","","","prac","","","","","","","","","","","","","","","","","","","",""
"340","","979829","SARL_v6lgpkenjy","msl000054","rlPractice","","","img/black_2bandit_b2.png","75","img/black_2bandit_b2.png","","prac","","","75","","","","","","","","","","","","","","","","",""
"null","","980585","SARL_v6lgpkenjy","msl000054","feedback","","","img/yay_R_b.png","null","","na","prac","","","","","","","","","","","","","","","","","","","",""
"null","","980741","SARL_v6lgpkenjy","msl000054","fixation","","","img/fixation.png","null","","","prac","","","","","","","","","","","","","","","","","","","",""
"48888","","1029634","SARL_v6lgpkenjy","msl000054","","","","","","","","prac","","","","","","","","","","","","","","","","","","","",""
"null","","1030440","SARL_v6lgpkenjy","msl000054","mixAttFreqPrac","","","img/green_2bandit_b2.png","null","img/green_2bandit_b2.png","70","prac","","","","","","","","","","","","","","","","","","","",""
"5","","1030597","SARL_v6lgpkenjy","msl000054","fixation","","","img/fixation.png","70","","","prac","","","","","","","","","","","","","","","","","","","",""
"428","","1031030","SARL_v6lgpkenjy","msl000054","mixAttInfreqPrac","","","img/orange_2bandit_b2.png","68","img/orange_2bandit_b2.png","68","prac","","","","","","","","","","","","","","","","","","","",""
"428","","1031407","SARL_v6lgpkenjy","msl000054","infreqPrac_resp","","","img/orange_2bandit_b.png","68","img/green_2bandit_b.png","68","prac","","","","","","","","","","","","","","","","","","","",""
"null","","1031563","SARL_v6lgpkenjy","msl000054","fixation","","","img/fixation.png","null","","","prac","","","","","","","","","","","","","","","","","","","",""
"294","","1031862","SARL_v6lgpkenjy","msl000054","mixAttInfreqPrac","","","img/orange_2bandit_b2.png","68","img/orange_2bandit_b2.png","68","prac","","","","","","","","","","","","","","","","","","","",""
"294","","1032374","SARL_v6lgpkenjy","msl000054","infreqPrac_resp","","","img/orange_2bandit_b.png","68","img/green_2bandit_b.png","68","prac","","","","","","","","","","","","","","","","","","","",""
"null","","1032530","SARL_v6lgpkenjy","msl000054","fixation","","","img/fixation.png","null","","","prac","","","","","","","","","","","","","","","","","","","",""
"394","","1032928","SARL_v6lgpkenjy","msl000054","mixAttInfreqPrac","","","img/orange_2bandit_b2.png","68","img/orange_2bandit_b2.png","68","prac","","","","","","","","","","","","","","","","","","","",""
"394","","1033341","SARL_v6lgpkenjy","msl000054","infreqPrac_resp","","","img/orange_2bandit_b.png","68","img/green_2bandit_b.png","68","prac","","","","","","","","","","","","","","","","","","","",""
"null","","1033496","SARL_v6lgpkenjy","msl000054","fixation","","","img/fixation.png","null","","","prac","","","","","","","","","","","","","","","","","","","",""
"432","","1033933","SARL_v6lgpkenjy","msl000054","mixAttFreqPrac","","","img/green_2bandit_b2.png","70","img/green_2bandit_b2.png","70","prac","","","","","","","","","","","","","","","","","","","",""
"432","","1034306","SARL_v6lgpkenjy","msl000054","freqPrac_resp","","","img/green_2bandit_b.png","70","img/green_2bandit_b.png","70","prac","","","","","","","","","","","","","","","","","","","",""
"null","","1034462","SARL_v6lgpkenjy","msl000054","fixation","","","img/fixation.png","null","","","prac","","","","","","","","","","","","","","","","","","","",""
"650","","1035117","SARL_v6lgpkenjy","msl000054","mixRLPractice","","","img/black_2bandit_b2.png","74","img/black_2bandit_b2.png","","prac","","","","","","","","","","","","","","","","","","","",""
"null","","1035873","SARL_v6lgpkenjy","msl000054","feedback","","","img/yay_L_b.png","null","","na","prac","","","","","","","","","","","","","","","","","","","",""
"null","","1036678","SARL_v6lgpkenjy","msl000054","mixAttFreqPrac","","","img/green_2bandit_b2.png","null","img/green_2bandit_b2.png","70","prac","","","","","","","","","","","","","","","","","","","",""
"50","","1036834","SARL_v6lgpkenjy","msl000054","fixation","","","img/fixation.png","70","","","prac","","","","","","","","","","","","","","","","","","","",""
"796","","1037634","SARL_v6lgpkenjy","msl000054","mixAttInfreqPrac","","","img/orange_2bandit_b2.png","68","img/orange_2bandit_b2.png","68","prac","","","","","","","","","","","","","","","","","","","",""
"796","","1037643","SARL_v6lgpkenjy","msl000054","infreqPrac_resp","","","img/orange_2bandit_b.png","68","img/green_2bandit_b.png","68","prac","","","","","","","","","","","","","","","","","","","",""
"null","","1037799","SARL_v6lgpkenjy","msl000054","fixation","","","img/fixation.png","null","","","prac","","","","","","","","","","","","","","","","","","","",""
"521","","1038326","SARL_v6lgpkenjy","msl000054","mixAttFreqPrac","","","img/green_2bandit_b2.png","70","img/green_2bandit_b2.png","70","prac","","","","","","","","","","","","","","","","","","","",""
"521","","1038610","SARL_v6lgpkenjy","msl000054","freqPrac_resp","","","img/green_2bandit_b.png","70","img/green_2bandit_b.png","70","prac","","","","","","","","","","","","","","","","","","","",""
"null","","1038766","SARL_v6lgpkenjy","msl000054","fixation","","","img/fixation.png","null","","","prac","","","","","","","","","","","","","","","","","","","",""
"390","","1039161","SARL_v6lgpkenjy","msl000054","mixAttFreqPrac","","","img/green_2bandit_b2.png","70","img/green_2bandit_b2.png","70","prac","","","","","","","","","","","","","","","","","","","",""
"390","","1039578","SARL_v6lgpkenjy","msl000054","freqPrac_resp","","","img/green_2bandit_b.png","70","img/green_2bandit_b.png","70","prac","","","","","","","","","","","","","","","","","","","",""
"null","","1039733","SARL_v6lgpkenjy","msl000054","fixation","","","img/fixation.png","null","","","prac","","","","","","","","","","","","","","","","","","","",""
"455","","1040193","SARL_v6lgpkenjy","msl000054","mixAttInfreqPrac","","","img/orange_2bandit_b2.png","68","img/orange_2bandit_b2.png","68","prac","","","","","","","","","","","","","","","","","","","",""
"455","","1040545","SARL_v6lgpkenjy","msl000054","infreqPrac_resp","","","img/orange_2bandit_b.png","68","img/green_2bandit_b.png","68","prac","","","","","","","","","","","","","","","","","","","",""
"null","","1040701","SARL_v6lgpkenjy","msl000054","fixation","","","img/fixation.png","null","","","prac","","","","","","","","","","","","","","","","","","","",""
"893","","1041599","SARL_v6lgpkenjy","msl000054","mixRLPractice","","","img/black_2bandit_b2.png","75","img/black_2bandit_b2.png","","prac","","","","","","","","","","","","","","","","","","","",""
"null","","1042355","SARL_v6lgpkenjy","msl000054","feedback","","","img/yay_R_b.png","null","","na","prac","","","","","","","","","","","","","","","","","","","",""
"48136","","1090495","SARL_v6lgpkenjy","msl000054","","","","","","","","prac","","","","","","","","","","","","","","","","","","","",""
"788","","1091288","SARL_v6lgpkenjy","msl000054","freq","","","img/green_2bandit_b2.png","70","","70","test","1","","","circle","square","1","1","1","1","1","","","","","","","","","",""
"null","","1091305","SARL_v6lgpkenjy","msl000054","freq_resp","","","img/green_2bandit_b.png","70","img/green_2bandit_b.png","70","test","","","","","","","","","1","","","","","","","","","","",""
"null","","1091461","SARL_v6lgpkenjy","msl000054","fixation","","","img/fixation.png","null","","","test","","","","","","","","","","","","","","","","","","","",""
"404","","1091870","SARL_v6lgpkenjy","msl000054","freq","","","img/green_2bandit_b2.png","70","","70","test","1","","","circle","square","2","2","2","1","1","","","","","","","","","",""
"null","","1092272","SARL_v6lgpkenjy","msl000054","freq_resp","","","img/green_2bandit_b.png","70","img/green_2bandit_b.png","70","test","","","","","","","","","1","","","","","","","","","","",""
"null","","1092428","SARL_v6lgpkenjy","msl000054","fixation","","","img/fixation.png","null","","","test","","","","","","","","","","","","","","","","","","","",""
"357","","1092789","SARL_v6lgpkenjy","msl000054","freq","","","img/green_2bandit_b2.png","70","","70","test","1","","","circle","square","3","3","3","1","1","","","","","","","","","",""
"null","","1093238","SARL_v6lgpkenjy","msl000054","freq_resp","","","img/green_2bandit_b.png","70","img/green_2bandit_b.png","70","test","","","","","","","","","1","","","","","","","","","","",""
"null","","1093394","SARL_v6lgpkenjy","msl000054","fixation","","","img/fixation.png","null","","","test","","","","","","","","","","","","","","","","","","","",""
"311","","1093712","SARL_v6lgpkenjy","msl000054","freq","","","img/green_2bandit_b2.png","70","","70","test","1","","","circle","square","4","4","4","1","1","","","","","","","","","",""
"null","","1094207","SARL_v6lgpkenjy","msl000054","freq_resp","","","img/green_2bandit_b.png","70","img/green_2bandit_b.png","70","test","","","","","","","","","1","","","","","","","","","","",""
"null","","1094363","SARL_v6lgpkenjy","msl000054","fixation","","","img/fixation.png","null","","","test","","","","","","","","","","","","","","","","","","","",""
"338","","1094706","SARL_v6lgpkenjy","msl000054","freq","","","img/green_2bandit_b2.png","70","","70","test","1","","","circle","square","5","5","5","1","1","","","","","","","","","",""
"null","","1095174","SARL_v6lgpkenjy","msl000054","freq_resp","","","img/green_2bandit_b.png","70","img/green_2bandit_b.png","70","test","","","","","","","","","1","","","","","","","","","","",""
"null","","1095331","SARL_v6lgpkenjy","msl000054","fixation","","","img/fixation.png","null","","","test","","","","","","","","","","","","","","","","","","","",""
"332","","1095668","SARL_v6lgpkenjy","msl000054","freq","","","img/green_2bandit_b2.png","70","","70","test","1","","","circle","square","6","6","6","1","1","","","","","","","","","",""
"null","","1096142","SARL_v6lgpkenjy","msl000054","freq_resp","","","img/green_2bandit_b.png","70","img/green_2bandit_b.png","70","test","","","","","","","","","1","","","","","","","","","","",""
"null","","1096298","SARL_v6lgpkenjy","msl000054","fixation","","","img/fixation.png","null","","","test","","","","","","","","","","","","","","","","","","","",""
"435","","1096738","SARL_v6lgpkenjy","msl000054","infreq","","","img/orange_2bandit_b2.png","68","","68","test","1","","","circle","square","7","7","7","1","1","","","","","","","","","",""
"null","","1097108","SARL_v6lgpkenjy","msl000054","infreq_resp","","","img/orange_2bandit_b.png","68","img/orange_2bandit_b.png","68","test","","","","","","","","","1","","","","","","","","","","",""
"null","","1097264","SARL_v6lgpkenjy","msl000054","fixation","","","img/fixation.png","null","","","test","","","","","","","","","","","","","","","","","","","",""
"412","","1097680","SARL_v6lgpkenjy","msl000054","freq","","","img/green_2bandit_b2.png","70","","70","test","1","","","circle","square","8","8","8","1","1","","","","","","","","","",""
"null","","1098075","SARL_v6lgpkenjy","msl000054","freq_resp","","","img/green_2bandit_b.png","70","img/green_2bandit_b.png","70","test","","","","","","","","","1","","","","","","","","","","",""
"null","","1098230","SARL_v6lgpkenjy","msl000054","fixation","","","img/fixation.png","null","","","test","","","","","","","","","","","","","","","","","","","",""
"319","","1098554","SARL_v6lgpkenjy","msl000054","freq","","","img/green_2bandit_b2.png","70","","70","test","1","","","circle","square","9","9","9","1","1","","","","","","","","","",""
"null","","1099040","SARL_v6lgpkenjy","msl000054","freq_resp","","","img/green_2bandit_b.png","70","img/green_2bandit_b.png","70","test","","","","","","","","","1","","","","","","","","","","",""
"null","","1099196","SARL_v6lgpkenjy","msl000054","fixation","","","img/fixation.png","null","","","test","","","","","","","","","","","","","","","","","","","",""
"265","","1099466","SARL_v6lgpkenjy","msl000054","freq","","","img/green_2bandit_b2.png","70","","70","test","1","","","circle","square","10","10","10","1","1","","","","","","","","","",""
"null","","1100007","SARL_v6lgpkenjy","msl000054","freq_resp","","","img/green_2bandit_b.png","70","img/green_2bandit_b.png","70","test","","","","","","","","","1","","","","","","","","","","",""
"null","","1100163","SARL_v6lgpkenjy","msl000054","fixation","","","img/fixation.png","null","","","test","","","","","","","","","","","","","","","","","","","",""
"278","","1100445","SARL_v6lgpkenjy","msl000054","freq","","","img/green_2bandit_b2.png","70","","70","test","1","","","circle","square","11","11","11","1","1","","","","","","","","","",""
"null","","1100974","SARL_v6lgpkenjy","msl000054","freq_resp","","","img/green_2bandit_b.png","70","img/green_2bandit_b.png","70","test","","","","","","","","","1","","","","","","","","","","",""
"null","","1101129","SARL_v6lgpkenjy","msl000054","fixation","","","img/fixation.png","null","","","test","","","","","","","","","","","","","","","","","","","",""
"296","","1101430","SARL_v6lgpkenjy","msl000054","freq","","","img/green_2bandit_b2.png","70","","70","test","1","","","circle","square","12","12","12","1","1","","","","","","","","","",""
"null","","1101940","SARL_v6lgpkenjy","msl000054","freq_resp","","","img/green_2bandit_b.png","70","img/green_2bandit_b.png","70","test","","","","","","","","","1","","","","","","","","","","",""
"null","","1102095","SARL_v6lgpkenjy","msl000054","fixation","","","img/fixation.png","null","","","test","","","","","","","","","","","","","","","","","","","",""
"414","","1102514","SARL_v6lgpkenjy","msl000054","infreq","","","img/orange_2bandit_b2.png","68","","68","test","1","","","circle","square","13","13","13","1","1","","","","","","","","","",""
"null","","1102905","SARL_v6lgpkenjy","msl000054","infreq_resp","","","img/orange_2bandit_b.png","68","img/orange_2bandit_b.png","68","test","","","","","","","","","1","","","","","","","","","","",""
"null","","1103060","SARL_v6lgpkenjy","msl000054","fixation","","","img/fixation.png","null","","","test","","","","","","","","","","","","","","","","","","","",""
"421","","1103486","SARL_v6lgpkenjy","msl000054","freq","","","img/green_2bandit_b2.png","70","","70","test","1","","","circle","square","14","14","14","1","1","","","","","","","","","",""
"null","","1103872","SARL_v6lgpkenjy","msl000054","freq_resp","","","img/green_2bandit_b.png","70","img/green_2bandit_b.png","70","test","","","","","","","","","1","","","","","","","","","","",""
"null","","1104028","SARL_v6lgpkenjy","msl000054","fixation","","","img/fixation.png","null","","","test","","","","","","","","","","","","","","","","","","","",""
"327","","1104358","SARL_v6lgpkenjy","msl000054","freq","","","img/green_2bandit_b2.png","70","","70","test","1","","","circle","square","15","15","15","1","1","","","","","","","","","",""
"null","","1104838","SARL_v6lgpkenjy","msl000054","freq_resp","","","img/green_2bandit_b.png","70","img/green_2bandit_b.png","70","test","","","","","","","","","1","","","","","","","","","","",""
"null","","1104993","SARL_v6lgpkenjy","msl000054","fixation","","","img/fixation.png","null","","","test","","","","","","","","","","","","","","","","","","","",""
"263","","1105260","SARL_v6lgpkenjy","msl000054","freq","","","img/green_2bandit_b2.png","70","","70","test","1","","","circle","square","16","16","16","1","1","","","","","","","","","",""
"null","","1105802","SARL_v6lgpkenjy","msl000054","freq_resp","","","img/green_2bandit_b.png","70","img/green_2bandit_b.png","70","test","","","","","","","","","1","","","","","","","","","","",""
"null","","1105958","SARL_v6lgpkenjy","msl000054","fixation","","","img/fixation.png","null","","","test","","","","","","","","","","","","","","","","","","","",""
"313","","1106276","SARL_v6lgpkenjy","msl000054","freq","","","img/green_2bandit_b2.png","70","","70","test","1","","","circle","square","17","17","17","1","1","","","","","","","","","",""
"null","","1106768","SARL_v6lgpkenjy","msl000054","freq_resp","","","img/green_2bandit_b.png","70","img/green_2bandit_b.png","70","test","","","","","","","","","1","","","","","","","","","","",""
"null","","1106924","SARL_v6lgpkenjy","msl000054","fixation","","","img/fixation.png","null","","","test","","","","","","","","","","","","","","","","","","","",""
"281","","1107209","SARL_v6lgpkenjy","msl000054","freq","","","img/green_2bandit_b2.png","70","","70","test","1","","","circle","square","18","18","18","1","1","","","","","","","","","",""
"null","","1107734","SARL_v6lgpkenjy","msl000054","freq_resp","","","img/green_2bandit_b.png","70","img/green_2bandit_b.png","70","test","","","","","","","","","1","","","","","","","","","","",""
"null","","1107891","SARL_v6lgpkenjy","msl000054","fixation","","","img/fixation.png","null","","","test","","","","","","","","","","","","","","","","","","","",""
"328","","1108223","SARL_v6lgpkenjy","msl000054","freq","","","img/green_2bandit_b2.png","70","","70","test","1","","","circle","square","19","19","19","1","1","","","","","","","","","",""
"null","","1108701","SARL_v6lgpkenjy","msl000054","freq_resp","","","img/green_2bandit_b.png","70","img/green_2bandit_b.png","70","test","","","","","","","","","1","","","","","","","","","","",""
"null","","1108857","SARL_v6lgpkenjy","msl000054","fixation","","","img/fixation.png","null","","","test","","","","","","","","","","","","","","","","","","","",""
"330","","1109190","SARL_v6lgpkenjy","msl000054","freq","","","img/green_2bandit_b2.png","70","","70","test","1","","","circle","square","20","20","20","1","1","","","","","","","","","",""
"null","","1109666","SARL_v6lgpkenjy","msl000054","freq_resp","","","img/green_2bandit_b.png","70","img/green_2bandit_b.png","70","test","","","","","","","","","1","","","","","","","","","","",""
"null","","1109821","SARL_v6lgpkenjy","msl000054","fixation","","","img/fixation.png","null","","","test","","","","","","","","","","","","","","","","","","","",""
"268","","1110093","SARL_v6lgpkenjy","msl000054","freq","","","img/green_2bandit_b2.png","70","","70","test","1","","","circle","square","21","21","21","1","1","","","","","","","","","",""
"null","","1110631","SARL_v6lgpkenjy","msl000054","freq_resp","","","img/green_2bandit_b.png","70","img/green_2bandit_b.png","70","test","","","","","","","","","1","","","","","","","","","","",""
"null","","1110786","SARL_v6lgpkenjy","msl000054","fixation","","","img/fixation.png","null","","","test","","","","","","","","","","","","","","","","","","","",""
"291","","1111083","SARL_v6lgpkenjy","msl000054","freq","","","img/green_2bandit_b2.png","70","","70","test","1","","","circle","square","22","22","22","1","1","","","","","","","","","",""
"null","","1111598","SARL_v6lgpkenjy","msl000054","freq_resp","","","img/green_2bandit_b.png","70","img/green_2bandit_b.png","70","test","","","","","","","","","1","","","","","","","","","","",""
"null","","1111754","SARL_v6lgpkenjy","msl000054","fixation","","","img/fixation.png","null","","","test","","","","","","","","","","","","","","","","","","","",""
"278","","1112038","SARL_v6lgpkenjy","msl000054","freq","","","img/green_2bandit_b2.png","70","","70","test","1","","","circle","square","23","23","23","1","1","","","","","","","","","",""
"null","","1112565","SARL_v6lgpkenjy","msl000054","freq_resp","","","img/green_2bandit_b.png","70","img/green_2bandit_b.png","70","test","","","","","","","","","1","","","","","","","","","","",""
"null","","1112720","SARL_v6lgpkenjy","msl000054","fixation","","","img/fixation.png","null","","","test","","","","","","","","","","","","","","","","","","","",""
"741","","1113466","SARL_v6lgpkenjy","msl000054","rl","","","img/black_2bandit_b2.png","74","","0","test","","","0","circle","square","24","","0","1","","74","0.2","0.8","0.26796252954001265","0.2","0.8","0.2","circle","1","0"
"null","","1114223","SARL_v6lgpkenjy","msl000054","feedback","","","img/boo_L_b.png","null","","na","test","","","","","","","","","1","","74","0.2","0.8","","","","0.2","","1",""
"577","","1114805","SARL_v6lgpkenjy","msl000054","freq","","","img/green_2bandit_b2.png","70","","70","test","1","","","circle","square","25","24","1","2","1","","","","","","","","","",""
"null","","1115034","SARL_v6lgpkenjy","msl000054","freq_resp","","","img/green_2bandit_b.png","70","img/green_2bandit_b.png","70","test","","","","","","","","","2","","","","","","","","","","",""
"null","","1115190","SARL_v6lgpkenjy","msl000054","fixation","","","img/fixation.png","null","","","test","","","","","","","","","","","","","","","","","","","",""
"555","","1115749","SARL_v6lgpkenjy","msl000054","freq","","","img/green_2bandit_b2.png","70","","70","test","1","","","circle","square","26","25","2","2","1","","","","","","","","","",""
"null","","1116001","SARL_v6lgpkenjy","msl000054","freq_resp","","","img/green_2bandit_b.png","70","img/green_2bandit_b.png","70","test","","","","","","","","","2","","","","","","","","","","",""
"null","","1116156","SARL_v6lgpkenjy","msl000054","fixation","","","img/fixation.png","null","","","test","","","","","","","","","","","","","","","","","","","",""
"565","","1116726","SARL_v6lgpkenjy","msl000054","freq","","","img/green_2bandit_b2.png","70","","70","test","1","","","circle","square","27","26","3","2","1","","","","","","","","","",""
"null","","1116967","SARL_v6lgpkenjy","msl000054","freq_resp","","","img/green_2bandit_b.png","70","img/green_2bandit_b.png","70","test","","","","","","","","","2","","","","","","","","","","",""
"null","","1117124","SARL_v6lgpkenjy","msl000054","fixation","","","img/fixation.png","null","","","test","","","","","","","","","","","","","","","","","","","",""
"368","","1117498","SARL_v6lgpkenjy","msl000054","freq","","","img/green_2bandit_b2.png","70","","70","test","1","","","circle","square","28","27","4","2","1","","","","","","","","","",""
"null","","1117936","SARL_v6lgpkenjy","msl000054","freq_resp","","","img/green_2bandit_b.png","70","img/green_2bandit_b.png","70","test","","","","","","","","","2","","","","","","","","","","",""
"null","","1118092","SARL_v6lgpkenjy","msl000054","fixation","","","img/fixation.png","null","","","test","","","","","","","","","","","","","","","","","","","",""
"470","","1118568","SARL_v6lgpkenjy","msl000054","infreq","","","img/orange_2bandit_b2.png","68","","68","test","1","","","circle","square","29","28","5","2","1","","","","","","","","","",""
"null","","1118903","SARL_v6lgpkenjy","msl000054","infreq_resp","","","img/orange_2bandit_b.png","68","img/orange_2bandit_b.png","68","test","","","","","","","","","2","","","","","","","","","","",""
"null","","1119059","SARL_v6lgpkenjy","msl000054","fixation","","","img/fixation.png","null","","","test","","","","","","","","","","","","","","","","","","","",""
"438","","1119502","SARL_v6lgpkenjy","msl000054","freq","","","img/green_2bandit_b2.png","70","","70","test","1","","","circle","square","30","29","6","2","1","","","","","","","","","",""
"null","","1119870","SARL_v6lgpkenjy","msl000054","freq_resp","","","img/green_2bandit_b.png","70","img/green_2bandit_b.png","70","test","","","","","","","","","2","","","","","","","","","","",""
"null","","1120024","SARL_v6lgpkenjy","msl000054","fixation","","","img/fixation.png","null","","","test","","","","","","","","","","","","","","","","","","","",""
"270","","1120298","SARL_v6lgpkenjy","msl000054","freq","","","img/green_2bandit_b2.png","70","","70","test","1","","","circle","square","31","30","7","2","1","","","","","","","","","",""
"null","","1120834","SARL_v6lgpkenjy","msl000054","freq_resp","","","img/green_2bandit_b.png","70","img/green_2bandit_b.png","70","test","","","","","","","","","2","","","","","","","","","","",""
"null","","1120990","SARL_v6lgpkenjy","msl000054","fixation","","","img/fixation.png","null","","","test","","","","","","","","","","","","","","","","","","","",""
"301","","1121296","SARL_v6lgpkenjy","msl000054","freq","","","img/green_2bandit_b2.png","70","","70","test","1","","","circle","square","32","31","8","2","1","","","","","","","","","",""
"null","","1121801","SARL_v6lgpkenjy","msl000054","freq_resp","","","img/green_2bandit_b.png","70","img/green_2bandit_b.png","70","test","","","","","","","","","2","","","","","","","","","","",""
"null","","1121957","SARL_v6lgpkenjy","msl000054","fixation","","","img/fixation.png","null","","","test","","","","","","","","","","","","","","","","","","","",""
"335","","1122298","SARL_v6lgpkenjy","msl000054","freq","","","img/green_2bandit_b2.png","70","","70","test","1","","","circle","square","33","32","9","2","1","","","","","","","","","",""
"null","","1122768","SARL_v6lgpkenjy","msl000054","freq_resp","","","img/green_2bandit_b.png","70","img/green_2bandit_b.png","70","test","","","","","","","","","2","","","","","","","","","","",""
"null","","1122924","SARL_v6lgpkenjy","msl000054","fixation","","","img/fixation.png","null","","","test","","","","","","","","","","","","","","","","","","","",""
"260","","1123188","SARL_v6lgpkenjy","msl000054","freq","","","img/green_2bandit_b2.png","70","","70","test","1","","","circle","square","34","33","10","2","1","","","","","","","","","",""
"null","","1123734","SARL_v6lgpkenjy","msl000054","freq_resp","","","img/green_2bandit_b.png","70","img/green_2bandit_b.png","70","test","","","","","","","","","2","","","","","","","","","","",""
"null","","1123890","SARL_v6lgpkenjy","msl000054","fixation","","","img/fixation.png","null","","","test","","","","","","","","","","","","","","","","","","","",""
"292","","1124187","SARL_v6lgpkenjy","msl000054","freq","","","img/green_2bandit_b2.png","70","","70","test","1","","","circle","square","35","34","11","2","1","","","","","","","","","",""
"null","","1124700","SARL_v6lgpkenjy","msl000054","freq_resp","","","img/green_2bandit_b.png","70","img/green_2bandit_b.png","70","test","","","","","","","","","2","","","","","","","","","","",""
"null","","1124855","SARL_v6lgpkenjy","msl000054","fixation","","","img/fixation.png","null","","","test","","","","","","","","","","","","","","","","","","","",""
"300","","1125161","SARL_v6lgpkenjy","msl000054","freq","","","img/green_2bandit_b2.png","70","","70","test","1","","","circle","square","36","35","12","2","1","","","","","","","","","",""
"null","","1125667","SARL_v6lgpkenjy","msl000054","freq_resp","","","img/green_2bandit_b.png","70","img/green_2bandit_b.png","70","test","","","","","","","","","2","","","","","","","","","","",""
"null","","1125822","SARL_v6lgpkenjy","msl000054","fixation","","","img/fixation.png","null","","","test","","","","","","","","","","","","","","","","","","","",""
"343","","1126170","SARL_v6lgpkenjy","msl000054","freq","","","img/green_2bandit_b2.png","70","","70","test","1","","","circle","square","37","36","13","2","1","","","","","","","","","",""
"null","","1126633","SARL_v6lgpkenjy","msl000054","freq_resp","","","img/green_2bandit_b.png","70","img/green_2bandit_b.png","70","test","","","","","","","","","2","","","","","","","","","","",""
"null","","1126789","SARL_v6lgpkenjy","msl000054","fixation","","","img/fixation.png","null","","","test","","","","","","","","","","","","","","","","","","","",""
"440","","1127232","SARL_v6lgpkenjy","msl000054","infreq","","","img/orange_2bandit_b2.png","68","","68","test","1","","","circle","square","38","37","14","2","1","","","","","","","","","",""
"null","","1127598","SARL_v6lgpkenjy","msl000054","infreq_resp","","","img/orange_2bandit_b.png","68","img/orange_2bandit_b.png","68","test","","","","","","","","","2","","","","","","","","","","",""
"null","","1127754","SARL_v6lgpkenjy","msl000054","fixation","","","img/fixation.png","null","","","test","","","","","","","","","","","","","","","","","","","",""
"408","","1128168","SARL_v6lgpkenjy","msl000054","freq","","","img/green_2bandit_b2.png","70","","70","test","1","","","circle","square","39","38","15","2","1","","","","","","","","","",""
"null","","1128566","SARL_v6lgpkenjy","msl000054","freq_resp","","","img/green_2bandit_b.png","70","img/green_2bandit_b.png","70","test","","","","","","","","","2","","","","","","","","","","",""
"null","","1128722","SARL_v6lgpkenjy","msl000054","fixation","","","img/fixation.png","null","","","test","","","","","","","","","","","","","","","","","","","",""
"286","","1129013","SARL_v6lgpkenjy","msl000054","freq","","","img/green_2bandit_b2.png","70","","70","test","1","","","circle","square","40","39","16","2","1","","","","","","","","","",""
"null","","1129533","SARL_v6lgpkenjy","msl000054","freq_resp","","","img/green_2bandit_b.png","70","img/green_2bandit_b.png","70","test","","","","","","","","","2","","","","","","","","","","",""
"null","","1129690","SARL_v6lgpkenjy","msl000054","fixation","","","img/fixation.png","null","","","test","","","","","","","","","","","","","","","","","","","",""
"273","","1129966","SARL_v6lgpkenjy","msl000054","freq","","","img/green_2bandit_b2.png","70","","70","test","1","","","circle","square","41","40","17","2","1","","","","","","","","","",""
"null","","1130499","SARL_v6lgpkenjy","msl000054","freq_resp","","","img/green_2bandit_b.png","70","img/green_2bandit_b.png","70","test","","","","","","","","","2","","","","","","","","","","",""
"null","","1130655","SARL_v6lgpkenjy","msl000054","fixation","","","img/fixation.png","null","","","test","","","","","","","","","","","","","","","","","","","",""
"309","","1130968","SARL_v6lgpkenjy","msl000054","freq","","","img/green_2bandit_b2.png","70","","70","test","1","","","circle","square","42","41","18","2","1","","","","","","","","","",""
"null","","1131465","SARL_v6lgpkenjy","msl000054","freq_resp","","","img/green_2bandit_b.png","70","img/green_2bandit_b.png","70","test","","","","","","","","","2","","","","","","","","","","",""
"null","","1131621","SARL_v6lgpkenjy","msl000054","fixation","","","img/fixation.png","null","","","test","","","","","","","","","","","","","","","","","","","",""
"464","","1132090","SARL_v6lgpkenjy","msl000054","infreq","","","img/orange_2bandit_b2.png","68","","68","test","1","","","circle","square","43","42","19","2","1","","","","","","","","","",""
"null","","1132432","SARL_v6lgpkenjy","msl000054","infreq_resp","","","img/orange_2bandit_b.png","68","img/orange_2bandit_b.png","68","test","","","","","","","","","2","","","","","","","","","","",""
"null","","1132588","SARL_v6lgpkenjy","msl000054","fixation","","","img/fixation.png","null","","","test","","","","","","","","","","","","","","","","","","","",""
"401","","1132993","SARL_v6lgpkenjy","msl000054","freq","","","img/green_2bandit_b2.png","70","","70","test","1","","","circle","square","44","43","20","2","1","","","","","","","","","",""
"null","","1133397","SARL_v6lgpkenjy","msl000054","freq_resp","","","img/green_2bandit_b.png","70","img/green_2bandit_b.png","70","test","","","","","","","","","2","","","","","","","","","","",""
"null","","1133553","SARL_v6lgpkenjy","msl000054","fixation","","","img/fixation.png","null","","","test","","","","","","","","","","","","","","","","","","","",""
"293","","1133851","SARL_v6lgpkenjy","msl000054","freq","","","img/green_2bandit_b2.png","70","","70","test","1","","","circle","square","45","44","21","2","1","","","","","","","","","",""
"null","","1134364","SARL_v6lgpkenjy","msl000054","freq_resp","","","img/green_2bandit_b.png","70","img/green_2bandit_b.png","70","test","","","","","","","","","2","","","","","","","","","","",""
"null","","1134519","SARL_v6lgpkenjy","msl000054","fixation","","","img/fixation.png","null","","","test","","","","","","","","","","","","","","","","","","","",""
"284","","1134808","SARL_v6lgpkenjy","msl000054","freq","","","img/green_2bandit_b2.png","70","","70","test","1","","","circle","square","46","45","22","2","1","","","","","","","","","",""
"null","","1135330","SARL_v6lgpkenjy","msl000054","freq_resp","","","img/green_2bandit_b.png","70","img/green_2bandit_b.png","70","test","","","","","","","","","2","","","","","","","","","","",""
"null","","1135485","SARL_v6lgpkenjy","msl000054","fixation","","","img/fixation.png","null","","","test","","","","","","","","","","","","","","","","","","","",""
"453","","1135943","SARL_v6lgpkenjy","msl000054","rl","","","img/black_2bandit_b2.png","75","","0","test","","","1","circle","square","47","","0","2","","75","0.2","0.8","0.6366852651247316","0.2","0.8","0.8","square","2","0"
"null","","1136699","SARL_v6lgpkenjy","msl000054","feedback","","","img/yay_R_b.png","null","","na","test","","","","","","","","","2","","75","0.2","0.8","","","","0.8","","2",""
"719","","1137422","SARL_v6lgpkenjy","msl000054","freq","","","img/green_2bandit_b2.png","70","","70","test","1","","","circle","square","48","46","1","3","1","","","","","","","","","",""
"null","","1137509","SARL_v6lgpkenjy","msl000054","freq_resp","","","img/green_2bandit_b.png","70","img/green_2bandit_b.png","70","test","","","","","","","","","3","","","","","","","","","","",""
"null","","1137664","SARL_v6lgpkenjy","msl000054","fixation","","","img/fixation.png","null","","","test","","","","","","","","","","","","","","","","","","","",""
"597","","1138267","SARL_v6lgpkenjy","msl000054","freq","","","img/green_2bandit_b2.png","70","","70","test","1","","","circle","square","49","47","2","3","1","","","","","","","","","",""
"null","","1138476","SARL_v6lgpkenjy","msl000054","freq_resp","","","img/green_2bandit_b.png","70","img/green_2bandit_b.png","70","test","","","","","","","","","3","","","","","","","","","","",""
"null","","1138632","SARL_v6lgpkenjy","msl000054","fixation","","","img/fixation.png","null","","","test","","","","","","","","","","","","","","","","","","","",""
"682","","1139319","SARL_v6lgpkenjy","msl000054","freq","","","img/green_2bandit_b2.png","70","","70","test","1","","","circle","square","50","48","3","3","1","","","","","","","","","",""
"null","","1139443","SARL_v6lgpkenjy","msl000054","freq_resp","","","img/green_2bandit_b.png","70","img/green_2bandit_b.png","70","test","","","","","","","","","3","","","","","","","","","","",""
"null","","1139599","SARL_v6lgpkenjy","msl000054","fixation","","","img/fixation.png","null","","","test","","","","","","","","","","","","","","","","","","","",""
"585","","1140189","SARL_v6lgpkenjy","msl000054","freq","","","img/green_2bandit_b2.png","70","","70","test","1","","","circle","square","51","49","4","3","1","","","","","","","","","",""
"null","","1140409","SARL_v6lgpkenjy","msl000054","freq_resp","","","img/green_2bandit_b.png","70","img/green_2bandit_b.png","70","test","","","","","","","","","3","","","","","","","","","","",""
"null","","1140567","SARL_v6lgpkenjy","msl000054","fixation","","","img/fixation.png","null","","","test","","","","","","","","","","","","","","","","","","","",""
"326","","1140897","SARL_v6lgpkenjy","msl000054","freq","","","img/green_2bandit_b2.png","70","","70","test","1","","","circle","square","52","50","5","3","1","","","","","","","","","",""
"null","","1141377","SARL_v6lgpkenjy","msl000054","freq_resp","","","img/green_2bandit_b.png","70","img/green_2bandit_b.png","70","test","","","","","","","","","3","","","","","","","","","","",""
"null","","1141533","SARL_v6lgpkenjy","msl000054","fixation","","","img/fixation.png","null","","","test","","","","","","","","","","","","","","","","","","","",""
"391","","1141928","SARL_v6lgpkenjy","msl000054","freq","","","img/green_2bandit_b2.png","70","","70","test","1","","","circle","square","53","51","6","3","1","","","","","","","","","",""
"null","","1142343","SARL_v6lgpkenjy","msl000054","freq_resp","","","img/green_2bandit_b.png","70","img/green_2bandit_b.png","70","test","","","","","","","","","3","","","","","","","","","","",""
"null","","1142498","SARL_v6lgpkenjy","msl000054","fixation","","","img/fixation.png","null","","","test","","","","","","","","","","","","","","","","","","","",""
"355","","1142858","SARL_v6lgpkenjy","msl000054","infreq","","","img/orange_2bandit_b2.png","68","","68","test","1","","","circle","square","54","52","7","3","1","","","","","","","","","",""
"null","","1143309","SARL_v6lgpkenjy","msl000054","infreq_resp","","","img/orange_2bandit_b.png","68","img/orange_2bandit_b.png","68","test","","","","","","","","","3","","","","","","","","","","",""
"null","","1143465","SARL_v6lgpkenjy","msl000054","fixation","","","img/fixation.png","null","","","test","","","","","","","","","","","","","","","","","","","",""
"357","","1143826","SARL_v6lgpkenjy","msl000054","freq","","","img/green_2bandit_b2.png","70","","70","test","1","","","circle","square","55","53","8","3","1","","","","","","","","","",""
"null","","1144275","SARL_v6lgpkenjy","msl000054","freq_resp","","","img/green_2bandit_b.png","70","img/green_2bandit_b.png","70","test","","","","","","","","","3","","","","","","","","","","",""
"null","","1144431","SARL_v6lgpkenjy","msl000054","fixation","","","img/fixation.png","null","","","test","","","","","","","","","","","","","","","","","","","",""
"294","","1144730","SARL_v6lgpkenjy","msl000054","freq","","","img/green_2bandit_b2.png","70","","70","test","1","","","circle","square","56","54","9","3","1","","","","","","","","","",""
"null","","1145242","SARL_v6lgpkenjy","msl000054","freq_resp","","","img/green_2bandit_b.png","70","img/green_2bandit_b.png","70","test","","","","","","","","","3","","","","","","","","","","",""
"null","","1145398","SARL_v6lgpkenjy","msl000054","fixation","","","img/fixation.png","null","","","test","","","","","","","","","","","","","","","","","","","",""
"274","","1145677","SARL_v6lgpkenjy","msl000054","freq","","","img/green_2bandit_b2.png","70","","70","test","1","","","circle","square","57","55","10","3","1","","","","","","","","","",""
"null","","1146207","SARL_v6lgpkenjy","msl000054","freq_resp","","","img/green_2bandit_b.png","70","img/green_2bandit_b.png","70","test","","","","","","","","","3","","","","","","","","","","",""
"null","","1146363","SARL_v6lgpkenjy","msl000054","fixation","","","img/fixation.png","null","","","test","","","","","","","","","","","","","","","","","","","",""
"312","","1146680","SARL_v6lgpkenjy","msl000054","freq","","","img/green_2bandit_b2.png","70","","70","test","1","","","circle","square","58","56","11","3","1","","","","","","","","","",""
"null","","1147174","SARL_v6lgpkenjy","msl000054","freq_resp","","","img/green_2bandit_b.png","70","img/green_2bandit_b.png","70","test","","","","","","","","","3","","","","","","","","","","",""
"null","","1147330","SARL_v6lgpkenjy","msl000054","fixation","","","img/fixation.png","null","","","test","","","","","","","","","","","","","","","","","","","",""
"193","","1147528","SARL_v6lgpkenjy","msl000054","freq","","","img/green_2bandit_b2.png","70","","70","test","1","","","circle","square","59","57","12","3","1","","","","","","","","","",""
"null","","1148140","SARL_v6lgpkenjy","msl000054","freq_resp","","","img/green_2bandit_b.png","70","img/green_2bandit_b.png","70","test","","","","","","","","","3","","","","","","","","","","",""
"null","","1148295","SARL_v6lgpkenjy","msl000054","fixation","","","img/fixation.png","null","","","test","","","","","","","","","","","","","","","","","","","",""
"453","","1148754","SARL_v6lgpkenjy","msl000054","freq","","","img/green_2bandit_b2.png","70","","70","test","1","","","circle","square","60","58","13","3","1","","","","","","","","","",""
"null","","1149107","SARL_v6lgpkenjy","msl000054","freq_resp","","","img/green_2bandit_b.png","70","img/green_2bandit_b.png","70","test","","","","","","","","","3","","","","","","","","","","",""
"null","","1149262","SARL_v6lgpkenjy","msl000054","fixation","","","img/fixation.png","null","","","test","","","","","","","","","","","","","","","","","","","",""
"354","","1149621","SARL_v6lgpkenjy","msl000054","freq","","","img/green_2bandit_b2.png","70","","70","test","1","","","circle","square","61","59","14","3","1","","","","","","","","","",""
"null","","1150072","SARL_v6lgpkenjy","msl000054","freq_resp","","","img/green_2bandit_b.png","70","img/green_2bandit_b.png","70","test","","","","","","","","","3","","","","","","","","","","",""
"null","","1150228","SARL_v6lgpkenjy","msl000054","fixation","","","img/fixation.png","null","","","test","","","","","","","","","","","","","","","","","","","",""
"492","","1150726","SARL_v6lgpkenjy","msl000054","infreq","","","img/orange_2bandit_b2.png","68","","68","test","1","","","circle","square","62","60","15","3","1","","","","","","","","","",""
"null","","1151040","SARL_v6lgpkenjy","msl000054","infreq_resp","","","img/orange_2bandit_b.png","68","img/orange_2bandit_b.png","68","test","","","","","","","","","3","","","","","","","","","","",""
"null","","1151196","SARL_v6lgpkenjy","msl000054","fixation","","","img/fixation.png","null","","","test","","","","","","","","","","","","","","","","","","","",""
"332","","1151532","SARL_v6lgpkenjy","msl000054","freq","","","img/green_2bandit_b2.png","70","","70","test","1","","","circle","square","63","61","16","3","1","","","","","","","","","",""
"null","","1152006","SARL_v6lgpkenjy","msl000054","freq_resp","","","img/green_2bandit_b.png","70","img/green_2bandit_b.png","70","test","","","","","","","","","3","","","","","","","","","","",""
"null","","1152161","SARL_v6lgpkenjy","msl000054","fixation","","","img/fixation.png","null","","","test","","","","","","","","","","","","","","","","","","","",""
"194","","1152360","SARL_v6lgpkenjy","msl000054","freq","","","img/green_2bandit_b2.png","70","","70","test","1","","","circle","square","64","62","17","3","1","","","","","","","","","",""
"null","","1152972","SARL_v6lgpkenjy","msl000054","freq_resp","","","img/green_2bandit_b.png","70","img/green_2bandit_b.png","70","test","","","","","","","","","3","","","","","","","","","","",""
"null","","1153128","SARL_v6lgpkenjy","msl000054","fixation","","","img/fixation.png","null","","","test","","","","","","","","","","","","","","","","","","","",""
"86","","1153219","SARL_v6lgpkenjy","msl000054","freq","","","img/green_2bandit_b2.png","70","","70","test","1","","","circle","square","65","63","18","3","1","","","","","","","","","",""
"null","","1153938","SARL_v6lgpkenjy","msl000054","freq_resp","","","img/green_2bandit_b.png","70","img/green_2bandit_b.png","70","test","","","","","","","","","3","","","","","","","","","","",""
"null","","1154094","SARL_v6lgpkenjy","msl000054","fixation","","","img/fixation.png","null","","","test","","","","","","","","","","","","","","","","","","","",""
"null","","1154900","SARL_v6lgpkenjy","msl000054","freq","","","img/green_2bandit_b2.png","null","","70","test","0","","","circle","square","66","64","19","3","0.984375","","","","","","","","","",""
"null","","1155056","SARL_v6lgpkenjy","msl000054","fixation","","","img/fixation.png","null","","","test","","","","","","","","","","","","","","","","","","","",""
"123","","1155185","SARL_v6lgpkenjy","msl000054","freq","","","img/green_2bandit_b2.png","70","","70","test","1","","","circle","square","67","65","20","3","0.9846153846153847","","","","","","","","","",""
"null","","1155868","SARL_v6lgpkenjy","msl000054","freq_resp","","","img/green_2bandit_b.png","70","img/green_2bandit_b.png","70","test","","","","","","","","","3","","","","","","","","","","",""
"null","","1156023","SARL_v6lgpkenjy","msl000054","fixation","","","img/fixation.png","null","","","test","","","","","","","","","","","","","","","","","","","",""
"823","","1156851","SARL_v6lgpkenjy","msl000054","rl","","","img/black_2bandit_b2.png","75","","0","test","","","1","circle","square","68","","0","3","","75","0.2","0.8","0.4845387952738983","0.2","0.8","0.8","square","3","0"
"null","","1157607","SARL_v6lgpkenjy","msl000054","feedback","","","img/yay_R_b.png","null","","na","test","","","","","","","","","3","","75","0.2","0.8","","","","0.8","","3",""
"523","","1158135","SARL_v6lgpkenjy","msl000054","freq","","","img/green_2bandit_b2.png","70","","70","test","1","","","circle","square","69","66","1","4","0.9848484848484849","","","","","","","","","",""
"null","","1158419","SARL_v6lgpkenjy","msl000054","freq_resp","","","img/green_2bandit_b.png","70","img/green_2bandit_b.png","70","test","","","","","","","","","4","","","","","","","","","","",""
"null","","1158574","SARL_v6lgpkenjy","msl000054","fixation","","","img/fixation.png","null","","","test","","","","","","","","","","","","","","","","","","","",""
"525","","1159104","SARL_v6lgpkenjy","msl000054","freq","","","img/green_2bandit_b2.png","70","","70","test","1","","","circle","square","70","67","2","4","0.9850746268656716","","","","","","","","","",""
"null","","1159385","SARL_v6lgpkenjy","msl000054","freq_resp","","","img/green_2bandit_b.png","70","img/green_2bandit_b.png","70","test","","","","","","","","","4","","","","","","","","","","",""
"null","","1159541","SARL_v6lgpkenjy","msl000054","fixation","","","img/fixation.png","null","","","test","","","","","","","","","","","","","","","","","","","",""
"551","","1160097","SARL_v6lgpkenjy","msl000054","infreq","","","img/orange_2bandit_b2.png","68","","68","test","1","","","circle","square","71","68","3","4","0.9852941176470589","","","","","","","","","",""
"null","","1160352","SARL_v6lgpkenjy","msl000054","infreq_resp","","","img/orange_2bandit_b.png","68","img/orange_2bandit_b.png","68","test","","","","","","","","","4","","","","","","","","","","",""
"null","","1160507","SARL_v6lgpkenjy","msl000054","fixation","","","img/fixation.png","null","","","test","","","","","","","","","","","","","","","","","","","",""
"475","","1160987","SARL_v6lgpkenjy","msl000054","freq","","","img/green_2bandit_b2.png","70","","70","test","1","","","circle","square","72","69","4","4","0.9855072463768116","","","","","","","","","",""
"null","","1161319","SARL_v6lgpkenjy","msl000054","freq_resp","","","img/green_2bandit_b.png","70","img/green_2bandit_b.png","70","test","","","","","","","","","4","","","","","","","","","","",""
"null","","1161474","SARL_v6lgpkenjy","msl000054","fixation","","","img/fixation.png","null","","","test","","","","","","","","","","","","","","","","","","","",""
"321","","1161800","SARL_v6lgpkenjy","msl000054","freq","","","img/green_2bandit_b2.png","70","","70","test","1","","","circle","square","73","70","5","4","0.9857142857142858","","","","","","","","","",""
"null","","1162284","SARL_v6lgpkenjy","msl000054","freq_resp","","","img/green_2bandit_b.png","70","img/green_2bandit_b.png","70","test","","","","","","","","","4","","","","","","","","","","",""
"null","","1162440","SARL_v6lgpkenjy","msl000054","fixation","","","img/fixation.png","null","","","test","","","","","","","","","","","","","","","","","","","",""
"247","","1162693","SARL_v6lgpkenjy","msl000054","infreq","","","img/orange_2bandit_b2.png","70","","68","test","0","","","circle","square","74","71","6","4","0.971830985915493","","","","","","","","","",""
"null","","1163252","SARL_v6lgpkenjy","msl000054","infreq_resp","","","img/orange_2bandit_b.png","70","img/orange_2bandit_b.png","68","test","","","","","","","","","4","","","","","","","","","","",""
"null","","1163406","SARL_v6lgpkenjy","msl000054","fixation","","","img/fixation.png","null","","","test","","","","","","","","","","","","","","","","","","","",""
"null","","1164213","SARL_v6lgpkenjy","msl000054","freq","","","img/green_2bandit_b2.png","null","","70","test","0","","","circle","square","75","72","7","4","0.9583333333333334","","","","","","","","","",""
"null","","1164369","SARL_v6lgpkenjy","msl000054","fixation","","","img/fixation.png","null","","","test","","","","","","","","","","","","","","","","","","","",""
"655","","1165028","SARL_v6lgpkenjy","msl000054","freq","","","img/green_2bandit_b2.png","70","","70","test","1","","","circle","square","76","73","8","4","0.958904109589041","","","","","","","","","",""
"null","","1165180","SARL_v6lgpkenjy","msl000054","freq_resp","","","img/green_2bandit_b.png","70","img/green_2bandit_b.png","70","test","","","","","","","","","4","","","","","","","","","","",""
"null","","1165336","SARL_v6lgpkenjy","msl000054","fixation","","","img/fixation.png","null","","","test","","","","","","","","","","","","","","","","","","","",""
"794","","1166135","SARL_v6lgpkenjy","msl000054","freq","","","img/green_2bandit_b2.png","70","","70","test","1","","","circle","square","77","74","9","4","0.9594594594594594","","","","","","","","","",""
"null","","1166147","SARL_v6lgpkenjy","msl000054","freq_resp","","","img/green_2bandit_b.png","70","img/green_2bandit_b.png","70","test","","","","","","","","","4","","","","","","","","","","",""
"null","","1166303","SARL_v6lgpkenjy","msl000054","fixation","","","img/fixation.png","null","","","test","","","","","","","","","","","","","","","","","","","",""
"null","","1167109","SARL_v6lgpkenjy","msl000054","freq","","","img/green_2bandit_b2.png","null","","70","test","0","","","circle","square","78","75","10","4","0.9466666666666667","","","","","","","","","",""
"null","","1167264","SARL_v6lgpkenjy","msl000054","fixation","","","img/fixation.png","null","","","test","","","","","","","","","","","","","","","","","","","",""
"642","","1167911","SARL_v6lgpkenjy","msl000054","freq","","","img/green_2bandit_b2.png","70","","70","test","1","","","circle","square","79","76","11","4","0.9473684210526315","","","","","","","","","",""
"null","","1168074","SARL_v6lgpkenjy","msl000054","freq_resp","","","img/green_2bandit_b.png","70","img/green_2bandit_b.png","70","test","","","","","","","","","4","","","","","","","","","","",""
"null","","1168231","SARL_v6lgpkenjy","msl000054","fixation","","","img/fixation.png","null","","","test","","","","","","","","","","","","","","","","","","","",""
"616","","1168852","SARL_v6lgpkenjy","msl000054","freq","","","img/green_2bandit_b2.png","70","","70","test","1","","","circle","square","80","77","12","4","0.948051948051948","","","","","","","","","",""
"null","","1169041","SARL_v6lgpkenjy","msl000054","freq_resp","","","img/green_2bandit_b.png","70","img/green_2bandit_b.png","70","test","","","","","","","","","4","","","","","","","","","","",""
"null","","1169198","SARL_v6lgpkenjy","msl000054","fixation","","","img/fixation.png","null","","","test","","","","","","","","","","","","","","","","","","","",""
"463","","1169667","SARL_v6lgpkenjy","msl000054","freq","","","img/green_2bandit_b2.png","70","","70","test","1","","","circle","square","81","78","13","4","0.9487179487179487","","","","","","","","","",""
"null","","1170011","SARL_v6lgpkenjy","msl000054","freq_resp","","","img/green_2bandit_b.png","70","img/green_2bandit_b.png","70","test","","","","","","","","","4","","","","","","","","","","",""
"null","","1170166","SARL_v6lgpkenjy","msl000054","fixation","","","img/fixation.png","null","","","test","","","","","","","","","","","","","","","","","","","",""
"498","","1170668","SARL_v6lgpkenjy","msl000054","freq","","","img/green_2bandit_b2.png","70","","70","test","1","","","circle","square","82","79","14","4","0.9493670886075949","","","","","","","","","",""
"null","","1170977","SARL_v6lgpkenjy","msl000054","freq_resp","","","img/green_2bandit_b.png","70","img/green_2bandit_b.png","70","test","","","","","","","","","4","","","","","","","","","","",""
"null","","1171133","SARL_v6lgpkenjy","msl000054","fixation","","","img/fixation.png","null","","","test","","","","","","","","","","","","","","","","","","","",""
"425","","1171564","SARL_v6lgpkenjy","msl000054","freq","","","img/green_2bandit_b2.png","70","","70","test","1","","","circle","square","83","80","15","4","0.95","","","","","","","","","",""
"null","","1171945","SARL_v6lgpkenjy","msl000054","freq_resp","","","img/green_2bandit_b.png","70","img/green_2bandit_b.png","70","test","","","","","","","","","4","","","","","","","","","","",""
"null","","1172102","SARL_v6lgpkenjy","msl000054","fixation","","","img/fixation.png","null","","","test","","","","","","","","","","","","","","","","","","","",""
"309","","1172414","SARL_v6lgpkenjy","msl000054","freq","","","img/green_2bandit_b2.png","70","","70","test","1","","","circle","square","84","81","16","4","0.9506172839506173","","","","","","","","","",""
"null","","1172910","SARL_v6lgpkenjy","msl000054","freq_resp","","","img/green_2bandit_b.png","70","img/green_2bandit_b.png","70","test","","","","","","","","","4","","","","","","","","","","",""
"null","","1173066","SARL_v6lgpkenjy","msl000054","fixation","","","img/fixation.png","null","","","test","","","","","","","","","","","","","","","","","","","",""
"458","","1173529","SARL_v6lgpkenjy","msl000054","infreq","","","img/orange_2bandit_b2.png","68","","68","test","1","","","circle","square","85","82","17","4","0.9512195121951219","","","","","","","","","",""
"null","","1173876","SARL_v6lgpkenjy","msl000054","infreq_resp","","","img/orange_2bandit_b.png","68","img/orange_2bandit_b.png","68","test","","","","","","","","","4","","","","","","","","","","",""
"null","","1174031","SARL_v6lgpkenjy","msl000054","fixation","","","img/fixation.png","null","","","test","","","","","","","","","","","","","","","","","","","",""
"402","","1174438","SARL_v6lgpkenjy","msl000054","freq","","","img/green_2bandit_b2.png","70","","70","test","1","","","circle","square","86","83","18","4","0.9518072289156626","","","","","","","","","",""
"null","","1174841","SARL_v6lgpkenjy","msl000054","freq_resp","","","img/green_2bandit_b.png","70","img/green_2bandit_b.png","70","test","","","","","","","","","4","","","","","","","","","","",""
"null","","1174997","SARL_v6lgpkenjy","msl000054","fixation","","","img/fixation.png","null","","","test","","","","","","","","","","","","","","","","","","","",""
"253","","1175256","SARL_v6lgpkenjy","msl000054","freq","","","img/green_2bandit_b2.png","70","","70","test","1","","","circle","square","87","84","19","4","0.9523809523809523","","","","","","","","","",""
"null","","1175809","SARL_v6lgpkenjy","msl000054","freq_resp","","","img/green_2bandit_b.png","70","img/green_2bandit_b.png","70","test","","","","","","","","","4","","","","","","","","","","",""
"null","","1175965","SARL_v6lgpkenjy","msl000054","fixation","","","img/fixation.png","null","","","test","","","","","","","","","","","","","","","","","","","",""
"243","","1176214","SARL_v6lgpkenjy","msl000054","freq","","","img/green_2bandit_b2.png","70","","70","test","1","","","circle","square","88","85","20","4","0.9529411764705882","","","","","","","","","",""
"null","","1176777","SARL_v6lgpkenjy","msl000054","freq_resp","","","img/green_2bandit_b.png","70","img/green_2bandit_b.png","70","test","","","","","","","","","4","","","","","","","","","","",""
"null","","1176933","SARL_v6lgpkenjy","msl000054","fixation","","","img/fixation.png","null","","","test","","","","","","","","","","","","","","","","","","","",""
"231","","1177168","SARL_v6lgpkenjy","msl000054","freq","","","img/green_2bandit_b2.png","70","","70","test","1","","","circle","square","89","86","21","4","0.9534883720930233","","","","","","","","","",""
"null","","1177744","SARL_v6lgpkenjy","msl000054","freq_resp","","","img/green_2bandit_b.png","70","img/green_2bandit_b.png","70","test","","","","","","","","","4","","","","","","","","","","",""
"null","","1177900","SARL_v6lgpkenjy","msl000054","fixation","","","img/fixation.png","null","","","test","","","","","","","","","","","","","","","","","","","",""
"728","","1178632","SARL_v6lgpkenjy","msl000054","rl","","","img/black_2bandit_b2.png","75","","0","test","","","1","circle","square","90","","0","4","","75","0.2","0.8","0.7062373888725803","0.2","0.8","0.8","square","4","0"
"null","","1179389","SARL_v6lgpkenjy","msl000054","feedback","","","img/yay_R_b.png","null","","na","test","","","","","","","","","4","","75","0.2","0.8","","","","0.8","","4",""
"372","","1179766","SARL_v6lgpkenjy","msl000054","freq","","","img/green_2bandit_b2.png","70","","70","test","1","","","circle","square","91","87","1","5","0.9540229885057471","","","","","","","","","",""
"null","","1180200","SARL_v6lgpkenjy","msl000054","freq_resp","","","img/green_2bandit_b.png","70","img/green_2bandit_b.png","70","test","","","","","","","","","5","","","","","","","","","","",""
"null","","1180356","SARL_v6lgpkenjy","msl000054","fixation","","","img/fixation.png","null","","","test","","","","","","","","","","","","","","","","","","","",""
"344","","1180705","SARL_v6lgpkenjy","msl000054","freq","","","img/green_2bandit_b2.png","70","","70","test","1","","","circle","square","92","88","2","5","0.9545454545454546","","","","","","","","","",""
"null","","1181166","SARL_v6lgpkenjy","msl000054","freq_resp","","","img/green_2bandit_b.png","70","img/green_2bandit_b.png","70","test","","","","","","","","","5","","","","","","","","","","",""
"null","","1181322","SARL_v6lgpkenjy","msl000054","fixation","","","img/fixation.png","null","","","test","","","","","","","","","","","","","","","","","","","",""
"263","","1181591","SARL_v6lgpkenjy","msl000054","freq","","","img/green_2bandit_b2.png","70","","70","test","1","","","circle","square","93","89","3","5","0.9550561797752809","","","","","","","","","",""
"null","","1182134","SARL_v6lgpkenjy","msl000054","freq_resp","","","img/green_2bandit_b.png","70","img/green_2bandit_b.png","70","test","","","","","","","","","5","","","","","","","","","","",""
"null","","1182290","SARL_v6lgpkenjy","msl000054","fixation","","","img/fixation.png","null","","","test","","","","","","","","","","","","","","","","","","","",""
"308","","1182602","SARL_v6lgpkenjy","msl000054","infreq","","","img/orange_2bandit_b2.png","70","","68","test","0","","","circle","square","94","90","4","5","0.9444444444444444","","","","","","","","","",""
"null","","1183099","SARL_v6lgpkenjy","msl000054","infreq_resp","","","img/orange_2bandit_b.png","70","img/orange_2bandit_b.png","68","test","","","","","","","","","5","","","","","","","","","","",""
"null","","1183256","SARL_v6lgpkenjy","msl000054","fixation","","","img/fixation.png","null","","","test","","","","","","","","","","","","","","","","","","","",""
"376","","1183637","SARL_v6lgpkenjy","msl000054","freq","","","img/green_2bandit_b2.png","70","","70","test","1","","","circle","square","95","91","5","5","0.945054945054945","","","","","","","","","",""
"null","","1184066","SARL_v6lgpkenjy","msl000054","freq_resp","","","img/green_2bandit_b.png","70","img/green_2bandit_b.png","70","test","","","","","","","","","5","","","","","","","","","","",""
"null","","1184223","SARL_v6lgpkenjy","msl000054","fixation","","","img/fixation.png","null","","","test","","","","","","","","","","","","","","","","","","","",""
"327","","1184554","SARL_v6lgpkenjy","msl000054","freq","","","img/green_2bandit_b2.png","70","","70","test","1","","","circle","square","96","92","6","5","0.9456521739130435","","","","","","","","","",""
"null","","1185033","SARL_v6lgpkenjy","msl000054","freq_resp","","","img/green_2bandit_b.png","70","img/green_2bandit_b.png","70","test","","","","","","","","","5","","","","","","","","","","",""
"null","","1185188","SARL_v6lgpkenjy","msl000054","fixation","","","img/fixation.png","null","","","test","","","","","","","","","","","","","","","","","","","",""
"333","","1185527","SARL_v6lgpkenjy","msl000054","freq","","","img/green_2bandit_b2.png","70","","70","test","1","","","circle","square","97","93","7","5","0.946236559139785","","","","","","","","","",""
"null","","1185999","SARL_v6lgpkenjy","msl000054","freq_resp","","","img/green_2bandit_b.png","70","img/green_2bandit_b.png","70","test","","","","","","","","","5","","","","","","","","","","",""
"null","","1186154","SARL_v6lgpkenjy","msl000054","fixation","","","img/fixation.png","null","","","test","","","","","","","","","","","","","","","","","","","",""
"333","","1186491","SARL_v6lgpkenjy","msl000054","freq","","","img/green_2bandit_b2.png","70","","70","test","1","","","circle","square","98","94","8","5","0.9468085106382979","","","","","","","","","",""
"null","","1186964","SARL_v6lgpkenjy","msl000054","freq_resp","","","img/green_2bandit_b.png","70","img/green_2bandit_b.png","70","test","","","","","","","","","5","","","","","","","","","","",""
"null","","1187120","SARL_v6lgpkenjy","msl000054","fixation","","","img/fixation.png","null","","","test","","","","","","","","","","","","","","","","","","","",""
"349","","1187473","SARL_v6lgpkenjy","msl000054","freq","","","img/green_2bandit_b2.png","70","","70","test","1","","","circle","square","99","95","9","5","0.9473684210526315","","","","","","","","","",""
"null","","1187929","SARL_v6lgpkenjy","msl000054","freq_resp","","","img/green_2bandit_b.png","70","img/green_2bandit_b.png","70","test","","","","","","","","","5","","","","","","","","","","",""
"null","","1188084","SARL_v6lgpkenjy","msl000054","fixation","","","img/fixation.png","null","","","test","","","","","","","","","","","","","","","","","","","",""
"349","","1188438","SARL_v6lgpkenjy","msl000054","freq","","","img/green_2bandit_b2.png","70","","70","test","1","","","circle","square","100","96","10","5","0.9479166666666666","","","","","","","","","",""
"null","","1188895","SARL_v6lgpkenjy","msl000054","freq_resp","","","img/green_2bandit_b.png","70","img/green_2bandit_b.png","70","test","","","","","","","","","5","","","","","","","","","","",""
"null","","1189050","SARL_v6lgpkenjy","msl000054","fixation","","","img/fixation.png","null","","","test","","","","","","","","","","","","","","","","","","","",""
"330","","1189385","SARL_v6lgpkenjy","msl000054","freq","","","img/green_2bandit_b2.png","70","","70","test","1","","","circle","square","101","97","11","5","0.9484536082474226","","","","","","","","","",""
"null","","1189861","SARL_v6lgpkenjy","msl000054","freq_resp","","","img/green_2bandit_b.png","70","img/green_2bandit_b.png","70","test","","","","","","","","","5","","","","","","","","","","",""
"null","","1190017","SARL_v6lgpkenjy","msl000054","fixation","","","img/fixation.png","null","","","test","","","","","","","","","","","","","","","","","","","",""
"413","","1190436","SARL_v6lgpkenjy","msl000054","infreq","","","img/orange_2bandit_b2.png","68","","68","test","1","","","circle","square","102","98","12","5","0.9489795918367347","","","","","","","","","",""
"null","","1190829","SARL_v6lgpkenjy","msl000054","infreq_resp","","","img/orange_2bandit_b.png","68","img/orange_2bandit_b.png","68","test","","","","","","","","","5","","","","","","","","","","",""
"null","","1190986","SARL_v6lgpkenjy","msl000054","fixation","","","img/fixation.png","null","","","test","","","","","","","","","","","","","","","","","","","",""
"408","","1191398","SARL_v6lgpkenjy","msl000054","freq","","","img/green_2bandit_b2.png","70","","70","test","1","","","circle","square","103","99","13","5","0.9494949494949495","","","","","","","","","",""
"null","","1191797","SARL_v6lgpkenjy","msl000054","freq_resp","","","img/green_2bandit_b.png","70","img/green_2bandit_b.png","70","test","","","","","","","","","5","","","","","","","","","","",""
"null","","1191953","SARL_v6lgpkenjy","msl000054","fixation","","","img/fixation.png","null","","","test","","","","","","","","","","","","","","","","","","","",""
"311","","1192268","SARL_v6lgpkenjy","msl000054","freq","","","img/green_2bandit_b2.png","70","","70","test","1","","","circle","square","104","100","14","5","0.95","","","","","","","","","",""
"null","","1192764","SARL_v6lgpkenjy","msl000054","freq_resp","","","img/green_2bandit_b.png","70","img/green_2bandit_b.png","70","test","","","","","","","","","5","","","","","","","","","","",""
"null","","1192920","SARL_v6lgpkenjy","msl000054","fixation","","","img/fixation.png","null","","","test","","","","","","","","","","","","","","","","","","","",""
"279","","1193204","SARL_v6lgpkenjy","msl000054","freq","","","img/green_2bandit_b2.png","70","","70","test","1","","","circle","square","105","101","15","5","0.9504950495049505","","","","","","","","","",""
"null","","1193731","SARL_v6lgpkenjy","msl000054","freq_resp","","","img/green_2bandit_b.png","70","img/green_2bandit_b.png","70","test","","","","","","","","","5","","","","","","","","","","",""
"null","","1193886","SARL_v6lgpkenjy","msl000054","fixation","","","img/fixation.png","null","","","test","","","","","","","","","","","","","","","","","","","",""
"291","","1194181","SARL_v6lgpkenjy","msl000054","freq","","","img/green_2bandit_b2.png","70","","70","test","1","","","circle","square","106","102","16","5","0.9509803921568627","","","","","","","","","",""
"null","","1194697","SARL_v6lgpkenjy","msl000054","freq_resp","","","img/green_2bandit_b.png","70","img/green_2bandit_b.png","70","test","","","","","","","","","5","","","","","","","","","","",""
"null","","1194852","SARL_v6lgpkenjy","msl000054","fixation","","","img/fixation.png","null","","","test","","","","","","","","","","","","","","","","","","","",""
"323","","1195180","SARL_v6lgpkenjy","msl000054","freq","","","img/green_2bandit_b2.png","70","","70","test","1","","","circle","square","107","103","17","5","0.9514563106796117","","","","","","","","","",""
"null","","1195662","SARL_v6lgpkenjy","msl000054","freq_resp","","","img/green_2bandit_b.png","70","img/green_2bandit_b.png","70","test","","","","","","","","","5","","","","","","","","","","",""
"null","","1195817","SARL_v6lgpkenjy","msl000054","fixation","","","img/fixation.png","null","","","test","","","","","","","","","","","","","","","","","","","",""
"305","","1196128","SARL_v6lgpkenjy","msl000054","freq","","","img/green_2bandit_b2.png","70","","70","test","1","","","circle","square","108","104","18","5","0.9519230769230769","","","","","","","","","",""
"null","","1196630","SARL_v6lgpkenjy","msl000054","freq_resp","","","img/green_2bandit_b.png","70","img/green_2bandit_b.png","70","test","","","","","","","","","5","","","","","","","","","","",""
"null","","1196785","SARL_v6lgpkenjy","msl000054","fixation","","","img/fixation.png","null","","","test","","","","","","","","","","","","","","","","","","","",""
"405","","1197195","SARL_v6lgpkenjy","msl000054","infreq","","","img/orange_2bandit_b2.png","68","","68","test","1","","","circle","square","109","105","19","5","0.9523809523809523","","","","","","","","","",""
"null","","1197597","SARL_v6lgpkenjy","msl000054","infreq_resp","","","img/orange_2bandit_b.png","68","img/orange_2bandit_b.png","68","test","","","","","","","","","5","","","","","","","","","","",""
"null","","1197753","SARL_v6lgpkenjy","msl000054","fixation","","","img/fixation.png","null","","","test","","","","","","","","","","","","","","","","","","","",""
"503","","1198262","SARL_v6lgpkenjy","msl000054","freq","","","img/green_2bandit_b2.png","70","","70","test","1","","","circle","square","110","106","20","5","0.9528301886792453","","","","","","","","","",""
"null","","1198564","SARL_v6lgpkenjy","msl000054","freq_resp","","","img/green_2bandit_b.png","70","img/green_2bandit_b.png","70","test","","","","","","","","","5","","","","","","","","","","",""
"null","","1198720","SARL_v6lgpkenjy","msl000054","fixation","","","img/fixation.png","null","","","test","","","","","","","","","","","","","","","","","","","",""
"437","","1199161","SARL_v6lgpkenjy","msl000054","freq","","","img/green_2bandit_b2.png","70","","70","test","1","","","circle","square","111","107","21","5","0.9532710280373832","","","","","","","","","",""
"null","","1199531","SARL_v6lgpkenjy","msl000054","freq_resp","","","img/green_2bandit_b.png","70","img/green_2bandit_b.png","70","test","","","","","","","","","5","","","","","","","","","","",""
"null","","1199687","SARL_v6lgpkenjy","msl000054","fixation","","","img/fixation.png","null","","","test","","","","","","","","","","","","","","","","","","","",""
"558","","1200251","SARL_v6lgpkenjy","msl000054","infreq","","","img/orange_2bandit_b2.png","68","","68","test","1","","","circle","square","112","108","22","5","0.9537037037037037","","","","","","","","","",""
"null","","1200499","SARL_v6lgpkenjy","msl000054","infreq_resp","","","img/orange_2bandit_b.png","68","img/orange_2bandit_b.png","68","test","","","","","","","","","5","","","","","","","","","","",""
"null","","1200654","SARL_v6lgpkenjy","msl000054","fixation","","","img/fixation.png","null","","","test","","","","","","","","","","","","","","","","","","","",""
"427","","1201085","SARL_v6lgpkenjy","msl000054","freq","","","img/green_2bandit_b2.png","70","","70","test","1","","","circle","square","113","109","23","5","0.9541284403669725","","","","","","","","","",""
"null","","1201464","SARL_v6lgpkenjy","msl000054","freq_resp","","","img/green_2bandit_b.png","70","img/green_2bandit_b.png","70","test","","","","","","","","","5","","","","","","","","","","",""
"null","","1201620","SARL_v6lgpkenjy","msl000054","fixation","","","img/fixation.png","null","","","test","","","","","","","","","","","","","","","","","","","",""
"350","","1201975","SARL_v6lgpkenjy","msl000054","freq","","","img/green_2bandit_b2.png","70","","70","test","1","","","circle","square","114","110","24","5","0.9545454545454546","","","","","","","","","",""
"null","","1202432","SARL_v6lgpkenjy","msl000054","freq_resp","","","img/green_2bandit_b.png","70","img/green_2bandit_b.png","70","test","","","","","","","","","5","","","","","","","","","","",""
"null","","1202587","SARL_v6lgpkenjy","msl000054","fixation","","","img/fixation.png","null","","","test","","","","","","","","","","","","","","","","","","","",""
"311","","1202903","SARL_v6lgpkenjy","msl000054","freq","","","img/green_2bandit_b2.png","70","","70","test","1","","","circle","square","115","111","25","5","0.954954954954955","","","","","","","","","",""
"null","","1203399","SARL_v6lgpkenjy","msl000054","freq_resp","","","img/green_2bandit_b.png","70","img/green_2bandit_b.png","70","test","","","","","","","","","5","","","","","","","","","","",""
"null","","1203553","SARL_v6lgpkenjy","msl000054","fixation","","","img/fixation.png","null","","","test","","","","","","","","","","","","","","","","","","","",""
"751","","1204309","SARL_v6lgpkenjy","msl000054","rl","","","img/black_2bandit_b2.png","75","","0","test","","","1","circle","square","116","","0","5","","75","0.2","0.8","0.23139690201975815","0.2","0.8","0.8","square","5","0"
"null","","1205065","SARL_v6lgpkenjy","msl000054","feedback","","","img/yay_R_b.png","null","","na","test","","","","","","","","","5","","75","0.2","0.8","","","","0.8","","5",""
"362","","1205433","SARL_v6lgpkenjy","msl000054","freq","","","img/green_2bandit_b2.png","70","","70","test","1","","","circle","square","117","112","1","6","0.9553571428571429","","","","","","","","","",""
"null","","1205877","SARL_v6lgpkenjy","msl000054","freq_resp","","","img/green_2bandit_b.png","70","img/green_2bandit_b.png","70","test","","","","","","","","","6","","","","","","","","","","",""
"null","","1206033","SARL_v6lgpkenjy","msl000054","fixation","","","img/fixation.png","null","","","test","","","","","","","","","","","","","","","","","","","",""
"342","","1206380","SARL_v6lgpkenjy","msl000054","freq","","","img/green_2bandit_b2.png","70","","70","test","1","","","circle","square","118","113","2","6","0.9557522123893806","","","","","","","","","",""
"null","","1206844","SARL_v6lgpkenjy","msl000054","freq_resp","","","img/green_2bandit_b.png","70","img/green_2bandit_b.png","70","test","","","","","","","","","6","","","","","","","","","","",""
"null","","1206999","SARL_v6lgpkenjy","msl000054","fixation","","","img/fixation.png","null","","","test","","","","","","","","","","","","","","","","","","","",""
"305","","1207308","SARL_v6lgpkenjy","msl000054","freq","","","img/green_2bandit_b2.png","70","","70","test","1","","","circle","square","119","114","3","6","0.956140350877193","","","","","","","","","",""
"null","","1207809","SARL_v6lgpkenjy","msl000054","freq_resp","","","img/green_2bandit_b.png","70","img/green_2bandit_b.png","70","test","","","","","","","","","6","","","","","","","","","","",""
"null","","1207965","SARL_v6lgpkenjy","msl000054","fixation","","","img/fixation.png","null","","","test","","","","","","","","","","","","","","","","","","","",""
"373","","1208342","SARL_v6lgpkenjy","msl000054","freq","","","img/green_2bandit_b2.png","70","","70","test","1","","","circle","square","120","115","4","6","0.9565217391304348","","","","","","","","","",""
"null","","1208774","SARL_v6lgpkenjy","msl000054","freq_resp","","","img/green_2bandit_b.png","70","img/green_2bandit_b.png","70","test","","","","","","","","","6","","","","","","","","","","",""
"null","","1208931","SARL_v6lgpkenjy","msl000054","fixation","","","img/fixation.png","null","","","test","","","","","","","","","","","","","","","","","","","",""
"361","","1209297","SARL_v6lgpkenjy","msl000054","freq","","","img/green_2bandit_b2.png","70","","70","test","1","","","circle","square","121","116","5","6","0.9568965517241379","","","","","","","","","",""
"null","","1209741","SARL_v6lgpkenjy","msl000054","freq_resp","","","img/green_2bandit_b.png","70","img/green_2bandit_b.png","70","test","","","","","","","","","6","","","","","","","","","","",""
"null","","1209896","SARL_v6lgpkenjy","msl000054","fixation","","","img/fixation.png","null","","","test","","","","","","","","","","","","","","","","","","","",""
"326","","1210229","SARL_v6lgpkenjy","msl000054","freq","","","img/green_2bandit_b2.png","70","","70","test","1","","","circle","square","122","117","6","6","0.9572649572649573","","","","","","","","","",""
"null","","1210709","SARL_v6lgpkenjy","msl000054","freq_resp","","","img/green_2bandit_b.png","70","img/green_2bandit_b.png","70","test","","","","","","","","","6","","","","","","","","","","",""
"null","","1210866","SARL_v6lgpkenjy","msl000054","fixation","","","img/fixation.png","null","","","test","","","","","","","","","","","","","","","","","","","",""
"330","","1211199","SARL_v6lgpkenjy","msl000054","freq","","","img/green_2bandit_b2.png","70","","70","test","1","","","circle","square","123","118","7","6","0.9576271186440678","","","","","","","","","",""
"null","","1211676","SARL_v6lgpkenjy","msl000054","freq_resp","","","img/green_2bandit_b.png","70","img/green_2bandit_b.png","70","test","","","","","","","","","6","","","","","","","","","","",""
"null","","1211831","SARL_v6lgpkenjy","msl000054","fixation","","","img/fixation.png","null","","","test","","","","","","","","","","","","","","","","","","","",""
"335","","1212171","SARL_v6lgpkenjy","msl000054","freq","","","img/green_2bandit_b2.png","70","","70","test","1","","","circle","square","124","119","8","6","0.957983193277311","","","","","","","","","",""
"null","","1212643","SARL_v6lgpkenjy","msl000054","freq_resp","","","img/green_2bandit_b.png","70","img/green_2bandit_b.png","70","test","","","","","","","","","6","","","","","","","","","","",""
"null","","1212799","SARL_v6lgpkenjy","msl000054","fixation","","","img/fixation.png","null","","","test","","","","","","","","","","","","","","","","","","","",""
"355","","1213159","SARL_v6lgpkenjy","msl000054","freq","","","img/green_2bandit_b2.png","70","","70","test","1","","","circle","square","125","120","9","6","0.9583333333333334","","","","","","","","","",""
"null","","1213610","SARL_v6lgpkenjy","msl000054","freq_resp","","","img/green_2bandit_b.png","70","img/green_2bandit_b.png","70","test","","","","","","","","","6","","","","","","","","","","",""
"null","","1213766","SARL_v6lgpkenjy","msl000054","fixation","","","img/fixation.png","null","","","test","","","","","","","","","","","","","","","","","","","",""
"308","","1214079","SARL_v6lgpkenjy","msl000054","freq","","","img/green_2bandit_b2.png","70","","70","test","1","","","circle","square","126","121","10","6","0.9586776859504132","","","","","","","","","",""
"null","","1214577","SARL_v6lgpkenjy","msl000054","freq_resp","","","img/green_2bandit_b.png","70","img/green_2bandit_b.png","70","test","","","","","","","","","6","","","","","","","","","","",""
"null","","1214733","SARL_v6lgpkenjy","msl000054","fixation","","","img/fixation.png","null","","","test","","","","","","","","","","","","","","","","","","","",""
"416","","1215154","SARL_v6lgpkenjy","msl000054","freq","","","img/green_2bandit_b2.png","70","","70","test","1","","","circle","square","127","122","11","6","0.9590163934426229","","","","","","","","","",""
"null","","1215543","SARL_v6lgpkenjy","msl000054","freq_resp","","","img/green_2bandit_b.png","70","img/green_2bandit_b.png","70","test","","","","","","","","","6","","","","","","","","","","",""
"null","","1215699","SARL_v6lgpkenjy","msl000054","fixation","","","img/fixation.png","null","","","test","","","","","","","","","","","","","","","","","","","",""
"302","","1216007","SARL_v6lgpkenjy","msl000054","freq","","","img/green_2bandit_b2.png","70","","70","test","1","","","circle","square","128","123","12","6","0.959349593495935","","","","","","","","","",""
"null","","1216512","SARL_v6lgpkenjy","msl000054","freq_resp","","","img/green_2bandit_b.png","70","img/green_2bandit_b.png","70","test","","","","","","","","","6","","","","","","","","","","",""
"null","","1216668","SARL_v6lgpkenjy","msl000054","fixation","","","img/fixation.png","null","","","test","","","","","","","","","","","","","","","","","","","",""
"301","","1216973","SARL_v6lgpkenjy","msl000054","freq","","","img/green_2bandit_b2.png","70","","70","test","1","","","circle","square","129","124","13","6","0.9596774193548387","","","","","","","","","",""
"null","","1217477","SARL_v6lgpkenjy","msl000054","freq_resp","","","img/green_2bandit_b.png","70","img/green_2bandit_b.png","70","test","","","","","","","","","6","","","","","","","","","","",""
"null","","1217633","SARL_v6lgpkenjy","msl000054","fixation","","","img/fixation.png","null","","","test","","","","","","","","","","","","","","","","","","","",""
"319","","1217957","SARL_v6lgpkenjy","msl000054","freq","","","img/green_2bandit_b2.png","70","","70","test","1","","","circle","square","130","125","14","6","0.96","","","","","","","","","",""
"null","","1218446","SARL_v6lgpkenjy","msl000054","freq_resp","","","img/green_2bandit_b.png","70","img/green_2bandit_b.png","70","test","","","","","","","","","6","","","","","","","","","","",""
"null","","1218601","SARL_v6lgpkenjy","msl000054","fixation","","","img/fixation.png","null","","","test","","","","","","","","","","","","","","","","","","","",""
"299","","1218905","SARL_v6lgpkenjy","msl000054","freq","","","img/green_2bandit_b2.png","70","","70","test","1","","","circle","square","131","126","15","6","0.9603174603174603","","","","","","","","","",""
"null","","1219412","SARL_v6lgpkenjy","msl000054","freq_resp","","","img/green_2bandit_b.png","70","img/green_2bandit_b.png","70","test","","","","","","","","","6","","","","","","","","","","",""
"null","","1219568","SARL_v6lgpkenjy","msl000054","fixation","","","img/fixation.png","null","","","test","","","","","","","","","","","","","","","","","","","",""
"377","","1219950","SARL_v6lgpkenjy","msl000054","infreq","","","img/orange_2bandit_b2.png","68","","68","test","1","","","circle","square","132","127","16","6","0.9606299212598425","","","","","","","","","",""
"null","","1220380","SARL_v6lgpkenjy","msl000054","infreq_resp","","","img/orange_2bandit_b.png","68","img/orange_2bandit_b.png","68","test","","","","","","","","","6","","","","","","","","","","",""
"null","","1220534","SARL_v6lgpkenjy","msl000054","fixation","","","img/fixation.png","null","","","test","","","","","","","","","","","","","","","","","","","",""
"417","","1220958","SARL_v6lgpkenjy","msl000054","freq","","","img/green_2bandit_b2.png","70","","70","test","1","","","circle","square","133","128","17","6","0.9609375","","","","","","","","","",""
"null","","1221347","SARL_v6lgpkenjy","msl000054","freq_resp","","","img/green_2bandit_b.png","70","img/green_2bandit_b.png","70","test","","","","","","","","","6","","","","","","","","","","",""
"null","","1221502","SARL_v6lgpkenjy","msl000054","fixation","","","img/fixation.png","null","","","test","","","","","","","","","","","","","","","","","","","",""
"248","","1221755","SARL_v6lgpkenjy","msl000054","freq","","","img/green_2bandit_b2.png","70","","70","test","1","","","circle","square","134","129","18","6","0.9612403100775194","","","","","","","","","",""
"null","","1222313","SARL_v6lgpkenjy","msl000054","freq_resp","","","img/green_2bandit_b.png","70","img/green_2bandit_b.png","70","test","","","","","","","","","6","","","","","","","","","","",""
"null","","1222470","SARL_v6lgpkenjy","msl000054","fixation","","","img/fixation.png","null","","","test","","","","","","","","","","","","","","","","","","","",""
"379","","1222854","SARL_v6lgpkenjy","msl000054","freq","","","img/green_2bandit_b2.png","70","","70","test","1","","","circle","square","135","130","19","6","0.9615384615384616","","","","","","","","","",""
"null","","1223281","SARL_v6lgpkenjy","msl000054","freq_resp","","","img/green_2bandit_b.png","70","img/green_2bandit_b.png","70","test","","","","","","","","","6","","","","","","","","","","",""
"null","","1223437","SARL_v6lgpkenjy","msl000054","fixation","","","img/fixation.png","null","","","test","","","","","","","","","","","","","","","","","","","",""
"263","","1223705","SARL_v6lgpkenjy","msl000054","freq","","","img/green_2bandit_b2.png","70","","70","test","1","","","circle","square","136","131","20","6","0.9618320610687023","","","","","","","","","",""
"null","","1224248","SARL_v6lgpkenjy","msl000054","freq_resp","","","img/green_2bandit_b.png","70","img/green_2bandit_b.png","70","test","","","","","","","","","6","","","","","","","","","","",""
"null","","1224404","SARL_v6lgpkenjy","msl000054","fixation","","","img/fixation.png","null","","","test","","","","","","","","","","","","","","","","","","","",""
"277","","1224687","SARL_v6lgpkenjy","msl000054","freq","","","img/green_2bandit_b2.png","70","","70","test","1","","","circle","square","137","132","21","6","0.9621212121212122","","","","","","","","","",""
"null","","1225215","SARL_v6lgpkenjy","msl000054","freq_resp","","","img/green_2bandit_b.png","70","img/green_2bandit_b.png","70","test","","","","","","","","","6","","","","","","","","","","",""
"null","","1225371","SARL_v6lgpkenjy","msl000054","fixation","","","img/fixation.png","null","","","test","","","","","","","","","","","","","","","","","","","",""
"290","","1225666","SARL_v6lgpkenjy","msl000054","infreq","","","img/orange_2bandit_b2.png","70","","68","test","0","","","circle","square","138","133","22","6","0.9548872180451128","","","","","","","","","",""
"null","","1226182","SARL_v6lgpkenjy","msl000054","infreq_resp","","","img/orange_2bandit_b.png","70","img/orange_2bandit_b.png","68","test","","","","","","","","","6","","","","","","","","","","",""
"null","","1226338","SARL_v6lgpkenjy","msl000054","fixation","","","img/fixation.png","null","","","test","","","","","","","","","","","","","","","","","","","",""
"301","","1226644","SARL_v6lgpkenjy","msl000054","freq","","","img/green_2bandit_b2.png","70","","70","test","1","","","circle","square","139","134","23","6","0.9552238805970149","","","","","","","","","",""
"null","","1227148","SARL_v6lgpkenjy","msl000054","freq_resp","","","img/green_2bandit_b.png","70","img/green_2bandit_b.png","70","test","","","","","","","","","6","","","","","","","","","","",""
"null","","1227304","SARL_v6lgpkenjy","msl000054","fixation","","","img/fixation.png","null","","","test","","","","","","","","","","","","","","","","","","","",""
"854","","1228163","SARL_v6lgpkenjy","msl000054","rl","","","img/black_2bandit_b2.png","75","","0","test","","","0","circle","square","140","","0","6","","75","0.2","0.8","0.8919308718138507","0.2","0.8","0.8","square","6","0"
"null","","1228920","SARL_v6lgpkenjy","msl000054","feedback","","","img/boo_R_b.png","null","","na","test","","","","","","","","","6","","75","0.2","0.8","","","","0.8","","6",""
"544","","1229467","SARL_v6lgpkenjy","msl000054","freq","","","img/green_2bandit_b2.png","70","","70","test","1","","","circle","square","141","135","1","7","0.9555555555555556","","","","","","","","","",""
"null","","1229729","SARL_v6lgpkenjy","msl000054","freq_resp","","","img/green_2bandit_b.png","70","img/green_2bandit_b.png","70","test","","","","","","","","","7","","","","","","","","","","",""
"null","","1229885","SARL_v6lgpkenjy","msl000054","fixation","","","img/fixation.png","null","","","test","","","","","","","","","","","","","","","","","","","",""
"null","","1230691","SARL_v6lgpkenjy","msl000054","infreq","","","img/orange_2bandit_b2.png","null","","68","test","0","","","circle","square","142","136","2","7","0.9485294117647058","","","","","","","","","",""
"null","","1230847","SARL_v6lgpkenjy","msl000054","fixation","","","img/fixation.png","null","","","test","","","","","","","","","","","","","","","","","","","",""
"1","","1230852","SARL_v6lgpkenjy","msl000054","freq","","","img/green_2bandit_b2.png","68","","70","test","0","","","circle","square","143","137","3","7","0.9416058394160584","","","","","","","","","",""
"null","","1231657","SARL_v6lgpkenjy","msl000054","freq_resp","","","img/green_2bandit_b.png","68","img/green_2bandit_b.png","70","test","","","","","","","","","7","","","","","","","","","","",""
"null","","1231813","SARL_v6lgpkenjy","msl000054","fixation","","","img/fixation.png","null","","","test","","","","","","","","","","","","","","","","","","","",""
"491","","1232308","SARL_v6lgpkenjy","msl000054","freq","","","img/green_2bandit_b2.png","70","","70","test","1","","","circle","square","144","138","4","7","0.9420289855072463","","","","","","","","","",""
"null","","1232623","SARL_v6lgpkenjy","msl000054","freq_resp","","","img/green_2bandit_b.png","70","img/green_2bandit_b.png","70","test","","","","","","","","","7","","","","","","","","","","",""
"null","","1232778","SARL_v6lgpkenjy","msl000054","fixation","","","img/fixation.png","null","","","test","","","","","","","","","","","","","","","","","","","",""
"436","","1233220","SARL_v6lgpkenjy","msl000054","freq","","","img/green_2bandit_b2.png","70","","70","test","1","","","circle","square","145","139","5","7","0.9424460431654677","","","","","","","","","",""
"null","","1233588","SARL_v6lgpkenjy","msl000054","freq_resp","","","img/green_2bandit_b.png","70","img/green_2bandit_b.png","70","test","","","","","","","","","7","","","","","","","","","","",""
"null","","1233745","SARL_v6lgpkenjy","msl000054","fixation","","","img/fixation.png","null","","","test","","","","","","","","","","","","","","","","","","","",""
"471","","1234220","SARL_v6lgpkenjy","msl000054","freq","","","img/green_2bandit_b2.png","70","","70","test","1","","","circle","square","146","140","6","7","0.9428571428571428","","","","","","","","","",""
"null","","1234556","SARL_v6lgpkenjy","msl000054","freq_resp","","","img/green_2bandit_b.png","70","img/green_2bandit_b.png","70","test","","","","","","","","","7","","","","","","","","","","",""
"null","","1234711","SARL_v6lgpkenjy","msl000054","fixation","","","img/fixation.png","null","","","test","","","","","","","","","","","","","","","","","","","",""
"560","","1235276","SARL_v6lgpkenjy","msl000054","freq","","","img/green_2bandit_b2.png","70","","70","test","1","","","circle","square","147","141","7","7","0.9432624113475178","","","","","","","","","",""
"null","","1235523","SARL_v6lgpkenjy","msl000054","freq_resp","","","img/green_2bandit_b.png","70","img/green_2bandit_b.png","70","test","","","","","","","","","7","","","","","","","","","","",""
"null","","1235677","SARL_v6lgpkenjy","msl000054","fixation","","","img/fixation.png","null","","","test","","","","","","","","","","","","","","","","","","","",""
"550","","1236232","SARL_v6lgpkenjy","msl000054","freq","","","img/green_2bandit_b2.png","70","","70","test","1","","","circle","square","148","142","8","7","0.9436619718309859","","","","","","","","","",""
"null","","1236488","SARL_v6lgpkenjy","msl000054","freq_resp","","","img/green_2bandit_b.png","70","img/green_2bandit_b.png","70","test","","","","","","","","","7","","","","","","","","","","",""
"null","","1236643","SARL_v6lgpkenjy","msl000054","fixation","","","img/fixation.png","null","","","test","","","","","","","","","","","","","","","","","","","",""
"421","","1237069","SARL_v6lgpkenjy","msl000054","freq","","","img/green_2bandit_b2.png","70","","70","test","1","","","circle","square","149","143","9","7","0.9440559440559441","","","","","","","","","",""
"null","","1237454","SARL_v6lgpkenjy","msl000054","freq_resp","","","img/green_2bandit_b.png","70","img/green_2bandit_b.png","70","test","","","","","","","","","7","","","","","","","","","","",""
"null","","1237609","SARL_v6lgpkenjy","msl000054","fixation","","","img/fixation.png","null","","","test","","","","","","","","","","","","","","","","","","","",""
"425","","1238039","SARL_v6lgpkenjy","msl000054","freq","","","img/green_2bandit_b2.png","70","","70","test","1","","","circle","square","150","144","10","7","0.9444444444444444","","","","","","","","","",""
"null","","1238420","SARL_v6lgpkenjy","msl000054","freq_resp","","","img/green_2bandit_b.png","70","img/green_2bandit_b.png","70","test","","","","","","","","","7","","","","","","","","","","",""
"null","","1238575","SARL_v6lgpkenjy","msl000054","fixation","","","img/fixation.png","null","","","test","","","","","","","","","","","","","","","","","","","",""
"446","","1239027","SARL_v6lgpkenjy","msl000054","freq","","","img/green_2bandit_b2.png","70","","70","test","1","","","circle","square","151","145","11","7","0.9448275862068966","","","","","","","","","",""
