"rt","responses","time_elapsed","subject","demoID","trialType","rlType","attType","stimulus","key_press","stim","corrresp","phase","corr","pracCounter","reward","bandOne","bandTwo","trialNum","attentionNum","attentionRunNum","blockNum","performance","bandChosen","circleVal","squareVal","coin","bandOneVal","bandTwoVal","pReward","shapeChosen","rlNum","badFlag"
"1294055","{""Q0"":""msl000059""}","1294079","SARL_v6nw0j2uax","msl000059","","","","","","","","","","","","","","","","","","","","","","","","","","","",""
"767","","1294855","SARL_v6nw0j2uax","msl000059","","","","","","","","","","","","","","","","","","","","","","","","","","","",""
"","","1296822","SARL_v6nw0j2uax","msl000059","fullscreen","fullscreen","fullscreen","","","","","","","","","","","","","","","","","","","","","","","","",""
"135606","","1432434","SARL_v6nw0j2uax","msl000059","","","","","","","","","","","","","","","","","","","","","","","","","","","",""
"null","","1433242","SARL_v6nw0j2uax","msl000059","freqPrac","","","img/orange_2bandit_b2.png","null","img/orange_2bandit_b2.png","70","prac","0","1","","","","","","","","","","","","","","","","","",""
"null","","1434248","SARL_v6nw0j2uax","msl000059","feedback","","","img/tooSlow.png","null","","na","prac","","","","","","","","","","","","","","","","","","","",""
"null","","1434405","SARL_v6nw0j2uax","msl000059","fixation","","","img/fixation.png","null","","","prac","","","","","","","","","","","","","","","","","","","",""
"483","","1434893","SARL_v6nw0j2uax","msl000059","infreqPrac","","","img/green_2bandit_b2.png","68","img/green_2bandit_b2.png","68","prac","1","1","","","","","","","","","","","","","","","","","",""
"483","","1435217","SARL_v6nw0j2uax","msl000059","infreqPrac_resp","","","img/green_2bandit_b.png","68","img/green_2bandit_b.png","68","prac","","","","","","","","","","","","","","","","","","","",""
"null","","1435373","SARL_v6nw0j2uax","msl000059","fixation","","","img/fixation.png","null","","","prac","","","","","","","","","","","","","","","","","","","",""
"383","","1435761","SARL_v6nw0j2uax","msl000059","freqPrac","","","img/orange_2bandit_b2.png","70","img/orange_2bandit_b2.png","70","prac","1","1","","","","","","","","","","","","","","","","","",""
"383","","1436185","SARL_v6nw0j2uax","msl000059","freqPrac_resp","","","img/orange_2bandit_b.png","70","img/orange_2bandit_b.png","70","prac","","","","","","","","","","","","","","","","","","","",""
"null","","1436340","SARL_v6nw0j2uax","msl000059","fixation","","","img/fixation.png","null","","","prac","","","","","","","","","","","","","","","","","","","",""
"255","","1436600","SARL_v6nw0j2uax","msl000059","infreqPrac","","","img/green_2bandit_b2.png","70","img/green_2bandit_b2.png","68","prac","0","2","","","","","","","","","","","","","","","","","",""
"255","","1437151","SARL_v6nw0j2uax","msl000059","infreqPrac_resp","","","img/green_2bandit_b.png","70","img/green_2bandit_b.png","68","prac","","","","","","","","","","","","","","","","","","","",""
"null","","1438156","SARL_v6nw0j2uax","msl000059","feedback","","","img/wrongKey.png","null","","na","prac","","","","","","","","","","","","","","","","","","","",""
"null","","1438312","SARL_v6nw0j2uax","msl000059","fixation","","","img/fixation.png","null","","","prac","","","","","","","","","","","","","","","","","","","",""
"432","","1438748","SARL_v6nw0j2uax","msl000059","infreqPrac","","","img/green_2bandit_b2.png","68","img/green_2bandit_b2.png","68","prac","1","2","","","","","","","","","","","","","","","","","",""
"432","","1439122","SARL_v6nw0j2uax","msl000059","infreqPrac_resp","","","img/green_2bandit_b.png","68","img/green_2bandit_b.png","68","prac","","","","","","","","","","","","","","","","","","","",""
"null","","1439278","SARL_v6nw0j2uax","msl000059","fixation","","","img/fixation.png","null","","","prac","","","","","","","","","","","","","","","","","","","",""
"338","","1439621","SARL_v6nw0j2uax","msl000059","infreqPrac","","","img/green_2bandit_b2.png","68","img/green_2bandit_b2.png","68","prac","1","2","","","","","","","","","","","","","","","","","",""
"338","","1440089","SARL_v6nw0j2uax","msl000059","infreqPrac_resp","","","img/green_2bandit_b.png","68","img/green_2bandit_b.png","68","prac","","","","","","","","","","","","","","","","","","","",""
"null","","1440246","SARL_v6nw0j2uax","msl000059","fixation","","","img/fixation.png","null","","","prac","","","","","","","","","","","","","","","","","","","",""
"410","","1440661","SARL_v6nw0j2uax","msl000059","freqPrac","","","img/orange_2bandit_b2.png","70","img/orange_2bandit_b2.png","70","prac","1","2","","","","","","","","","","","","","","","","","",""
"410","","1441057","SARL_v6nw0j2uax","msl000059","freqPrac_resp","","","img/orange_2bandit_b.png","70","img/orange_2bandit_b.png","70","prac","","","","","","","","","","","","","","","","","","","",""
"null","","1441213","SARL_v6nw0j2uax","msl000059","fixation","","","img/fixation.png","null","","","prac","","","","","","","","","","","","","","","","","","","",""
"null","","1442018","SARL_v6nw0j2uax","msl000059","infreqPrac","","","img/green_2bandit_b2.png","null","img/green_2bandit_b2.png","68","prac","0","3","","","","","","","","","","","","","","","","","",""
"null","","1443024","SARL_v6nw0j2uax","msl000059","feedback","","","img/tooSlow.png","null","","na","prac","","","","","","","","","","","","","","","","","","","",""
"null","","1443180","SARL_v6nw0j2uax","msl000059","fixation","","","img/fixation.png","null","","","prac","","","","","","","","","","","","","","","","","","","",""
"421","","1443605","SARL_v6nw0j2uax","msl000059","freqPrac","","","img/orange_2bandit_b2.png","70","img/orange_2bandit_b2.png","70","prac","1","3","","","","","","","","","","","","","","","","","",""
"421","","1443990","SARL_v6nw0j2uax","msl000059","freqPrac_resp","","","img/orange_2bandit_b.png","70","img/orange_2bandit_b.png","70","prac","","","","","","","","","","","","","","","","","","","",""
"null","","1444146","SARL_v6nw0j2uax","msl000059","fixation","","","img/fixation.png","null","","","prac","","","","","","","","","","","","","","","","","","","",""
"295","","1444445","SARL_v6nw0j2uax","msl000059","freqPrac","","","img/orange_2bandit_b2.png","70","img/orange_2bandit_b2.png","70","prac","1","3","","","","","","","","","","","","","","","","","",""
"295","","1444956","SARL_v6nw0j2uax","msl000059","freqPrac_resp","","","img/orange_2bandit_b.png","70","img/orange_2bandit_b.png","70","prac","","","","","","","","","","","","","","","","","","","",""
"null","","1445111","SARL_v6nw0j2uax","msl000059","fixation","","","img/fixation.png","null","","","prac","","","","","","","","","","","","","","","","","","","",""
"94322","","1539438","SARL_v6nw0j2uax","msl000059","","","","","","","","prac","","","","","","","","","","","","","","","","","","","",""
"1199","","1540641","SARL_v6nw0j2uax","msl000059","rlPractice","","","img/black_2bandit_b2.png","74","img/black_2bandit_b2.png","","prac","","","75","","","","","","","","","","","","","","","","",""
"null","","1541398","SARL_v6nw0j2uax","msl000059","feedback","","","img/boo_L_b.png","null","","na","prac","","","","","","","","","","","","","","","","","","","",""
"null","","1541553","SARL_v6nw0j2uax","msl000059","fixation","","","img/fixation.png","null","","","prac","","","","","","","","","","","","","","","","","","","",""
"332","","1541891","SARL_v6nw0j2uax","msl000059","rlPractice","","","img/black_2bandit_b2.png","75","img/black_2bandit_b2.png","","prac","","","75","","","","","","","","","","","","","","","","",""
"null","","1542647","SARL_v6nw0j2uax","msl000059","feedback","","","img/yay_R_b.png","null","","na","prac","","","","","","","","","","","","","","","","","","","",""
"null","","1542802","SARL_v6nw0j2uax","msl000059","fixation","","","img/fixation.png","null","","","prac","","","","","","","","","","","","","","","","","","","",""
"443","","1543249","SARL_v6nw0j2uax","msl000059","rlPractice","","","img/black_2bandit_b2.png","75","img/black_2bandit_b2.png","","prac","","","75","","","","","","","","","","","","","","","","",""
"null","","1544005","SARL_v6nw0j2uax","msl000059","feedback","","","img/yay_R_b.png","null","","na","prac","","","","","","","","","","","","","","","","","","","",""
"null","","1544159","SARL_v6nw0j2uax","msl000059","fixation","","","img/fixation.png","null","","","prac","","","","","","","","","","","","","","","","","","","",""
"471","","1544636","SARL_v6nw0j2uax","msl000059","rlPractice","","","img/black_2bandit_b2.png","75","img/black_2bandit_b2.png","","prac","","","75","","","","","","","","","","","","","","","","",""
"null","","1545392","SARL_v6nw0j2uax","msl000059","feedback","","","img/yay_R_b.png","null","","na","prac","","","","","","","","","","","","","","","","","","","",""
"null","","1545548","SARL_v6nw0j2uax","msl000059","fixation","","","img/fixation.png","null","","","prac","","","","","","","","","","","","","","","","","","","",""
"399","","1545952","SARL_v6nw0j2uax","msl000059","rlPractice","","","img/black_2bandit_b2.png","75","img/black_2bandit_b2.png","","prac","","","75","","","","","","","","","","","","","","","","",""
"null","","1546708","SARL_v6nw0j2uax","msl000059","feedback","","","img/yay_R_b.png","null","","na","prac","","","","","","","","","","","","","","","","","","","",""
"null","","1546863","SARL_v6nw0j2uax","msl000059","fixation","","","img/fixation.png","null","","","prac","","","","","","","","","","","","","","","","","","","",""
"471","","1547338","SARL_v6nw0j2uax","msl000059","rlPractice","","","img/black_2bandit_b2.png","75","img/black_2bandit_b2.png","","prac","","","75","","","","","","","","","","","","","","","","",""
"null","","1548095","SARL_v6nw0j2uax","msl000059","feedback","","","img/yay_R_b.png","null","","na","prac","","","","","","","","","","","","","","","","","","","",""
"null","","1548250","SARL_v6nw0j2uax","msl000059","fixation","","","img/fixation.png","null","","","prac","","","","","","","","","","","","","","","","","","","",""
"448","","1548705","SARL_v6nw0j2uax","msl000059","rlPractice","","","img/black_2bandit_b2.png","75","img/black_2bandit_b2.png","","prac","","","75","","","","","","","","","","","","","","","","",""
"null","","1549460","SARL_v6nw0j2uax","msl000059","feedback","","","img/yay_R_b.png","null","","na","prac","","","","","","","","","","","","","","","","","","","",""
"null","","1549616","SARL_v6nw0j2uax","msl000059","fixation","","","img/fixation.png","null","","","prac","","","","","","","","","","","","","","","","","","","",""
"18426","","1568047","SARL_v6nw0j2uax","msl000059","","","","","","","","prac","","","","","","","","","","","","","","","","","","","",""
"680","","1568731","SARL_v6nw0j2uax","msl000059","mixAttFreqPrac","","","img/orange_2bandit_b2.png","70","img/orange_2bandit_b2.png","70","prac","","","","","","","","","","","","","","","","","","","",""
"680","","1568855","SARL_v6nw0j2uax","msl000059","freqPrac_resp","","","img/orange_2bandit_b.png","70","img/orange_2bandit_b.png","70","prac","","","","","","","","","","","","","","","","","","","",""
"null","","1569012","SARL_v6nw0j2uax","msl000059","fixation","","","img/fixation.png","null","","","prac","","","","","","","","","","","","","","","","","","","",""
"417","","1569434","SARL_v6nw0j2uax","msl000059","mixAttInfreqPrac","","","img/green_2bandit_b2.png","68","img/green_2bandit_b2.png","68","prac","","","","","","","","","","","","","","","","","","","",""
"417","","1569822","SARL_v6nw0j2uax","msl000059","infreqPrac_resp","","","img/green_2bandit_b.png","68","img/orange_2bandit_b.png","68","prac","","","","","","","","","","","","","","","","","","","",""
"null","","1569978","SARL_v6nw0j2uax","msl000059","fixation","","","img/fixation.png","null","","","prac","","","","","","","","","","","","","","","","","","","",""
"241","","1570224","SARL_v6nw0j2uax","msl000059","mixAttInfreqPrac","","","img/green_2bandit_b2.png","68","img/green_2bandit_b2.png","68","prac","","","","","","","","","","","","","","","","","","","",""
"241","","1570789","SARL_v6nw0j2uax","msl000059","infreqPrac_resp","","","img/green_2bandit_b.png","68","img/orange_2bandit_b.png","68","prac","","","","","","","","","","","","","","","","","","","",""
"null","","1570945","SARL_v6nw0j2uax","msl000059","fixation","","","img/fixation.png","null","","","prac","","","","","","","","","","","","","","","","","","","",""
"314","","1571263","SARL_v6nw0j2uax","msl000059","mixAttInfreqPrac","","","img/green_2bandit_b2.png","68","img/green_2bandit_b2.png","68","prac","","","","","","","","","","","","","","","","","","","",""
"314","","1571755","SARL_v6nw0j2uax","msl000059","infreqPrac_resp","","","img/green_2bandit_b.png","68","img/orange_2bandit_b.png","68","prac","","","","","","","","","","","","","","","","","","","",""
"null","","1571910","SARL_v6nw0j2uax","msl000059","fixation","","","img/fixation.png","null","","","prac","","","","","","","","","","","","","","","","","","","",""
"381","","1572296","SARL_v6nw0j2uax","msl000059","mixAttFreqPrac","","","img/orange_2bandit_b2.png","70","img/orange_2bandit_b2.png","70","prac","","","","","","","","","","","","","","","","","","","",""
"381","","1572721","SARL_v6nw0j2uax","msl000059","freqPrac_resp","","","img/orange_2bandit_b.png","70","img/orange_2bandit_b.png","70","prac","","","","","","","","","","","","","","","","","","","",""
"null","","1572876","SARL_v6nw0j2uax","msl000059","fixation","","","img/fixation.png","null","","","prac","","","","","","","","","","","","","","","","","","","",""
"580","","1573461","SARL_v6nw0j2uax","msl000059","mixRLPractice","","","img/black_2bandit_b2.png","74","img/black_2bandit_b2.png","","prac","","","","","","","","","","","","","","","","","","","",""
"null","","1574217","SARL_v6nw0j2uax","msl000059","feedback","","","img/yay_L_b.png","null","","na","prac","","","","","","","","","","","","","","","","","","","",""
"618","","1574839","SARL_v6nw0j2uax","msl000059","mixAttFreqPrac","","","img/orange_2bandit_b2.png","70","img/orange_2bandit_b2.png","70","prac","","","","","","","","","","","","","","","","","","","",""
"618","","1575027","SARL_v6nw0j2uax","msl000059","freqPrac_resp","","","img/orange_2bandit_b.png","70","img/orange_2bandit_b.png","70","prac","","","","","","","","","","","","","","","","","","","",""
"null","","1575185","SARL_v6nw0j2uax","msl000059","fixation","","","img/fixation.png","null","","","prac","","","","","","","","","","","","","","","","","","","",""
"408","","1575597","SARL_v6nw0j2uax","msl000059","mixAttInfreqPrac","","","img/green_2bandit_b2.png","68","img/green_2bandit_b2.png","68","prac","","","","","","","","","","","","","","","","","","","",""
"408","","1575996","SARL_v6nw0j2uax","msl000059","infreqPrac_resp","","","img/green_2bandit_b.png","68","img/orange_2bandit_b.png","68","prac","","","","","","","","","","","","","","","","","","","",""
"null","","1576150","SARL_v6nw0j2uax","msl000059","fixation","","","img/fixation.png","null","","","prac","","","","","","","","","","","","","","","","","","","",""
"452","","1576606","SARL_v6nw0j2uax","msl000059","mixAttFreqPrac","","","img/orange_2bandit_b2.png","70","img/orange_2bandit_b2.png","70","prac","","","","","","","","","","","","","","","","","","","",""
"452","","1576960","SARL_v6nw0j2uax","msl000059","freqPrac_resp","","","img/orange_2bandit_b.png","70","img/orange_2bandit_b.png","70","prac","","","","","","","","","","","","","","","","","","","",""
"null","","1577116","SARL_v6nw0j2uax","msl000059","fixation","","","img/fixation.png","null","","","prac","","","","","","","","","","","","","","","","","","","",""
"490","","1577611","SARL_v6nw0j2uax","msl000059","mixAttFreqPrac","","","img/orange_2bandit_b2.png","70","img/orange_2bandit_b2.png","70","prac","","","","","","","","","","","","","","","","","","","",""
"490","","1577927","SARL_v6nw0j2uax","msl000059","freqPrac_resp","","","img/orange_2bandit_b.png","70","img/orange_2bandit_b.png","70","prac","","","","","","","","","","","","","","","","","","","",""
"null","","1578082","SARL_v6nw0j2uax","msl000059","fixation","","","img/fixation.png","null","","","prac","","","","","","","","","","","","","","","","","","","",""
"426","","1578513","SARL_v6nw0j2uax","msl000059","mixAttInfreqPrac","","","img/green_2bandit_b2.png","68","img/green_2bandit_b2.png","68","prac","","","","","","","","","","","","","","","","","","","",""
"426","","1578893","SARL_v6nw0j2uax","msl000059","infreqPrac_resp","","","img/green_2bandit_b.png","68","img/orange_2bandit_b.png","68","prac","","","","","","","","","","","","","","","","","","","",""
"null","","1579048","SARL_v6nw0j2uax","msl000059","fixation","","","img/fixation.png","null","","","prac","","","","","","","","","","","","","","","","","","","",""
"546","","1579597","SARL_v6nw0j2uax","msl000059","mixRLPractice","","","img/black_2bandit_b2.png","74","img/black_2bandit_b2.png","","prac","","","","","","","","","","","","","","","","","","","",""
"null","","1580354","SARL_v6nw0j2uax","msl000059","feedback","","","img/boo_L_b.png","null","","na","prac","","","","","","","","","","","","","","","","","","","",""
"52377","","1632736","SARL_v6nw0j2uax","msl000059","","","","","","","","prac","","","","","","","","","","","","","","","","","","","",""
"595","","1633336","SARL_v6nw0j2uax","msl000059","freq","","","img/orange_2bandit_b2.png","70","","70","test","1","","","circle","square","1","1","1","1","1","","","","","","","","","",""
"null","","1633548","SARL_v6nw0j2uax","msl000059","freq_resp","","","img/orange_2bandit_b.png","70","img/orange_2bandit_b.png","70","test","","","","","","","","","1","","","","","","","","","","",""
"null","","1633703","SARL_v6nw0j2uax","msl000059","fixation","","","img/fixation.png","null","","","test","","","","","","","","","","","","","","","","","","","",""
"292","","1634001","SARL_v6nw0j2uax","msl000059","freq","","","img/orange_2bandit_b2.png","70","","70","test","1","","","circle","square","2","2","2","1","1","","","","","","","","","",""
"null","","1634514","SARL_v6nw0j2uax","msl000059","freq_resp","","","img/orange_2bandit_b.png","70","img/orange_2bandit_b.png","70","test","","","","","","","","","1","","","","","","","","","","",""
"null","","1634670","SARL_v6nw0j2uax","msl000059","fixation","","","img/fixation.png","null","","","test","","","","","","","","","","","","","","","","","","","",""
"265","","1634940","SARL_v6nw0j2uax","msl000059","infreq","","","img/green_2bandit_b2.png","70","","68","test","0","","","circle","square","3","3","3","1","0.6666666666666666","","","","","","","","","",""
"null","","1635480","SARL_v6nw0j2uax","msl000059","infreq_resp","","","img/green_2bandit_b.png","70","img/green_2bandit_b.png","68","test","","","","","","","","","1","","","","","","","","","","",""
"null","","1635637","SARL_v6nw0j2uax","msl000059","fixation","","","img/fixation.png","null","","","test","","","","","","","","","","","","","","","","","","","",""
"425","","1636067","SARL_v6nw0j2uax","msl000059","freq","","","img/orange_2bandit_b2.png","70","","70","test","1","","","circle","square","4","4","4","1","0.75","","","","","","","","","",""
"null","","1636448","SARL_v6nw0j2uax","msl000059","freq_resp","","","img/orange_2bandit_b.png","70","img/orange_2bandit_b.png","70","test","","","","","","","","","1","","","","","","","","","","",""
"null","","1636605","SARL_v6nw0j2uax","msl000059","fixation","","","img/fixation.png","null","","","test","","","","","","","","","","","","","","","","","","","",""
"370","","1636979","SARL_v6nw0j2uax","msl000059","freq","","","img/orange_2bandit_b2.png","70","","70","test","1","","","circle","square","5","5","5","1","0.8","","","","","","","","","",""
"null","","1637415","SARL_v6nw0j2uax","msl000059","freq_resp","","","img/orange_2bandit_b.png","70","img/orange_2bandit_b.png","70","test","","","","","","","","","1","","","","","","","","","","",""
"null","","1637573","SARL_v6nw0j2uax","msl000059","fixation","","","img/fixation.png","null","","","test","","","","","","","","","","","","","","","","","","","",""
"351","","1637927","SARL_v6nw0j2uax","msl000059","freq","","","img/orange_2bandit_b2.png","70","","70","test","1","","","circle","square","6","6","6","1","0.8333333333333334","","","","","","","","","",""
"null","","1638382","SARL_v6nw0j2uax","msl000059","freq_resp","","","img/orange_2bandit_b.png","70","img/orange_2bandit_b.png","70","test","","","","","","","","","1","","","","","","","","","","",""
"null","","1638538","SARL_v6nw0j2uax","msl000059","fixation","","","img/fixation.png","null","","","test","","","","","","","","","","","","","","","","","","","",""
"359","","1638902","SARL_v6nw0j2uax","msl000059","freq","","","img/orange_2bandit_b2.png","70","","70","test","1","","","circle","square","7","7","7","1","0.8571428571428571","","","","","","","","","",""
"null","","1639347","SARL_v6nw0j2uax","msl000059","freq_resp","","","img/orange_2bandit_b.png","70","img/orange_2bandit_b.png","70","test","","","","","","","","","1","","","","","","","","","","",""
"null","","1639503","SARL_v6nw0j2uax","msl000059","fixation","","","img/fixation.png","null","","","test","","","","","","","","","","","","","","","","","","","",""
"321","","1639830","SARL_v6nw0j2uax","msl000059","freq","","","img/orange_2bandit_b2.png","70","","70","test","1","","","circle","square","8","8","8","1","0.875","","","","","","","","","",""
"null","","1640315","SARL_v6nw0j2uax","msl000059","freq_resp","","","img/orange_2bandit_b.png","70","img/orange_2bandit_b.png","70","test","","","","","","","","","1","","","","","","","","","","",""
"null","","1640470","SARL_v6nw0j2uax","msl000059","fixation","","","img/fixation.png","null","","","test","","","","","","","","","","","","","","","","","","","",""
"334","","1640809","SARL_v6nw0j2uax","msl000059","freq","","","img/orange_2bandit_b2.png","70","","70","test","1","","","circle","square","9","9","9","1","0.8888888888888888","","","","","","","","","",""
"null","","1641281","SARL_v6nw0j2uax","msl000059","freq_resp","","","img/orange_2bandit_b.png","70","img/orange_2bandit_b.png","70","test","","","","","","","","","1","","","","","","","","","","",""
"null","","1641437","SARL_v6nw0j2uax","msl000059","fixation","","","img/fixation.png","null","","","test","","","","","","","","","","","","","","","","","","","",""
"334","","1641777","SARL_v6nw0j2uax","msl000059","freq","","","img/orange_2bandit_b2.png","70","","70","test","1","","","circle","square","10","10","10","1","0.9","","","","","","","","","",""
"null","","1642249","SARL_v6nw0j2uax","msl000059","freq_resp","","","img/orange_2bandit_b.png","70","img/orange_2bandit_b.png","70","test","","","","","","","","","1","","","","","","","","","","",""
"null","","1642405","SARL_v6nw0j2uax","msl000059","fixation","","","img/fixation.png","null","","","test","","","","","","","","","","","","","","","","","","","",""
"321","","1642730","SARL_v6nw0j2uax","msl000059","freq","","","img/orange_2bandit_b2.png","70","","70","test","1","","","circle","square","11","11","11","1","0.9090909090909091","","","","","","","","","",""
"null","","1643216","SARL_v6nw0j2uax","msl000059","freq_resp","","","img/orange_2bandit_b.png","70","img/orange_2bandit_b.png","70","test","","","","","","","","","1","","","","","","","","","","",""
"null","","1643372","SARL_v6nw0j2uax","msl000059","fixation","","","img/fixation.png","null","","","test","","","","","","","","","","","","","","","","","","","",""
"361","","1643738","SARL_v6nw0j2uax","msl000059","freq","","","img/orange_2bandit_b2.png","70","","70","test","1","","","circle","square","12","12","12","1","0.9166666666666666","","","","","","","","","",""
"null","","1644182","SARL_v6nw0j2uax","msl000059","freq_resp","","","img/orange_2bandit_b.png","70","img/orange_2bandit_b.png","70","test","","","","","","","","","1","","","","","","","","","","",""
"null","","1644339","SARL_v6nw0j2uax","msl000059","fixation","","","img/fixation.png","null","","","test","","","","","","","","","","","","","","","","","","","",""
"333","","1644676","SARL_v6nw0j2uax","msl000059","freq","","","img/orange_2bandit_b2.png","70","","70","test","1","","","circle","square","13","13","13","1","0.9230769230769231","","","","","","","","","",""
"null","","1645149","SARL_v6nw0j2uax","msl000059","freq_resp","","","img/orange_2bandit_b.png","70","img/orange_2bandit_b.png","70","test","","","","","","","","","1","","","","","","","","","","",""
"null","","1645305","SARL_v6nw0j2uax","msl000059","fixation","","","img/fixation.png","null","","","test","","","","","","","","","","","","","","","","","","","",""
"356","","1645667","SARL_v6nw0j2uax","msl000059","freq","","","img/orange_2bandit_b2.png","70","","70","test","1","","","circle","square","14","14","14","1","0.9285714285714286","","","","","","","","","",""
"null","","1646117","SARL_v6nw0j2uax","msl000059","freq_resp","","","img/orange_2bandit_b.png","70","img/orange_2bandit_b.png","70","test","","","","","","","","","1","","","","","","","","","","",""
"null","","1646273","SARL_v6nw0j2uax","msl000059","fixation","","","img/fixation.png","null","","","test","","","","","","","","","","","","","","","","","","","",""
"383","","1646659","SARL_v6nw0j2uax","msl000059","infreq","","","img/green_2bandit_b2.png","68","","68","test","1","","","circle","square","15","15","15","1","0.9333333333333333","","","","","","","","","",""
"null","","1647081","SARL_v6nw0j2uax","msl000059","infreq_resp","","","img/green_2bandit_b.png","68","img/green_2bandit_b.png","68","test","","","","","","","","","1","","","","","","","","","","",""
"null","","1647237","SARL_v6nw0j2uax","msl000059","fixation","","","img/fixation.png","null","","","test","","","","","","","","","","","","","","","","","","","",""
"325","","1647566","SARL_v6nw0j2uax","msl000059","freq","","","img/orange_2bandit_b2.png","70","","70","test","1","","","circle","square","16","16","16","1","0.9375","","","","","","","","","",""
"null","","1648049","SARL_v6nw0j2uax","msl000059","freq_resp","","","img/orange_2bandit_b.png","70","img/orange_2bandit_b.png","70","test","","","","","","","","","1","","","","","","","","","","",""
"null","","1648205","SARL_v6nw0j2uax","msl000059","fixation","","","img/fixation.png","null","","","test","","","","","","","","","","","","","","","","","","","",""
"336","","1648545","SARL_v6nw0j2uax","msl000059","freq","","","img/orange_2bandit_b2.png","70","","70","test","1","","","circle","square","17","17","17","1","0.9411764705882353","","","","","","","","","",""
"null","","1649015","SARL_v6nw0j2uax","msl000059","freq_resp","","","img/orange_2bandit_b.png","70","img/orange_2bandit_b.png","70","test","","","","","","","","","1","","","","","","","","","","",""
"null","","1649171","SARL_v6nw0j2uax","msl000059","fixation","","","img/fixation.png","null","","","test","","","","","","","","","","","","","","","","","","","",""
"403","","1649579","SARL_v6nw0j2uax","msl000059","infreq","","","img/green_2bandit_b2.png","68","","68","test","1","","","circle","square","18","18","18","1","0.9444444444444444","","","","","","","","","",""
"null","","1649981","SARL_v6nw0j2uax","msl000059","infreq_resp","","","img/green_2bandit_b.png","68","img/green_2bandit_b.png","68","test","","","","","","","","","1","","","","","","","","","","",""
"null","","1650137","SARL_v6nw0j2uax","msl000059","fixation","","","img/fixation.png","null","","","test","","","","","","","","","","","","","","","","","","","",""
"337","","1650479","SARL_v6nw0j2uax","msl000059","freq","","","img/orange_2bandit_b2.png","70","","70","test","1","","","circle","square","19","19","19","1","0.9473684210526315","","","","","","","","","",""
"null","","1650948","SARL_v6nw0j2uax","msl000059","freq_resp","","","img/orange_2bandit_b.png","70","img/orange_2bandit_b.png","70","test","","","","","","","","","1","","","","","","","","","","",""
"null","","1651103","SARL_v6nw0j2uax","msl000059","fixation","","","img/fixation.png","null","","","test","","","","","","","","","","","","","","","","","","","",""
"293","","1651401","SARL_v6nw0j2uax","msl000059","freq","","","img/orange_2bandit_b2.png","70","","70","test","1","","","circle","square","20","20","20","1","0.95","","","","","","","","","",""
"null","","1651913","SARL_v6nw0j2uax","msl000059","freq_resp","","","img/orange_2bandit_b.png","70","img/orange_2bandit_b.png","70","test","","","","","","","","","1","","","","","","","","","","",""
"null","","1652069","SARL_v6nw0j2uax","msl000059","fixation","","","img/fixation.png","null","","","test","","","","","","","","","","","","","","","","","","","",""
"290","","1652364","SARL_v6nw0j2uax","msl000059","freq","","","img/orange_2bandit_b2.png","70","","70","test","1","","","circle","square","21","21","21","1","0.9523809523809523","","","","","","","","","",""
"null","","1652880","SARL_v6nw0j2uax","msl000059","freq_resp","","","img/orange_2bandit_b.png","70","img/orange_2bandit_b.png","70","test","","","","","","","","","1","","","","","","","","","","",""
"null","","1653035","SARL_v6nw0j2uax","msl000059","fixation","","","img/fixation.png","null","","","test","","","","","","","","","","","","","","","","","","","",""
"333","","1653373","SARL_v6nw0j2uax","msl000059","freq","","","img/orange_2bandit_b2.png","70","","70","test","1","","","circle","square","22","22","22","1","0.9545454545454546","","","","","","","","","",""
"null","","1653845","SARL_v6nw0j2uax","msl000059","freq_resp","","","img/orange_2bandit_b.png","70","img/orange_2bandit_b.png","70","test","","","","","","","","","1","","","","","","","","","","",""
"null","","1654001","SARL_v6nw0j2uax","msl000059","fixation","","","img/fixation.png","null","","","test","","","","","","","","","","","","","","","","","","","",""
"325","","1654330","SARL_v6nw0j2uax","msl000059","freq","","","img/orange_2bandit_b2.png","70","","70","test","1","","","circle","square","23","23","23","1","0.9565217391304348","","","","","","","","","",""
"null","","1654811","SARL_v6nw0j2uax","msl000059","freq_resp","","","img/orange_2bandit_b.png","70","img/orange_2bandit_b.png","70","test","","","","","","","","","1","","","","","","","","","","",""
"null","","1654967","SARL_v6nw0j2uax","msl000059","fixation","","","img/fixation.png","null","","","test","","","","","","","","","","","","","","","","","","","",""
"308","","1655280","SARL_v6nw0j2uax","msl000059","freq","","","img/orange_2bandit_b2.png","70","","70","test","1","","","circle","square","24","24","24","1","0.9583333333333334","","","","","","","","","",""
"null","","1655778","SARL_v6nw0j2uax","msl000059","freq_resp","","","img/orange_2bandit_b.png","70","img/orange_2bandit_b.png","70","test","","","","","","","","","1","","","","","","","","","","",""
"null","","1655933","SARL_v6nw0j2uax","msl000059","fixation","","","img/fixation.png","null","","","test","","","","","","","","","","","","","","","","","","","",""
"803","","1656743","SARL_v6nw0j2uax","msl000059","rl","","","img/black_2bandit_b2.png","74","","0","test","","","1","circle","square","25","","0","1","","74","0.2","0.8","0.01770008939782175","0.2","0.8","0.2","circle","1","0"
"null","","1657498","SARL_v6nw0j2uax","msl000059","feedback","","","img/yay_L_b.png","null","","na","test","","","","","","","","","1","","74","0.2","0.8","","","","0.2","","1",""
"467","","1657972","SARL_v6nw0j2uax","msl000059","freq","","","img/orange_2bandit_b2.png","70","","70","test","1","","","circle","square","26","25","1","2","0.96","","","","","","","","","",""
"null","","1658310","SARL_v6nw0j2uax","msl000059","freq_resp","","","img/orange_2bandit_b.png","70","img/orange_2bandit_b.png","70","test","","","","","","","","","2","","","","","","","","","","",""
"null","","1658466","SARL_v6nw0j2uax","msl000059","fixation","","","img/fixation.png","null","","","test","","","","","","","","","","","","","","","","","","","",""
"463","","1658934","SARL_v6nw0j2uax","msl000059","freq","","","img/orange_2bandit_b2.png","70","","70","test","1","","","circle","square","27","26","2","2","0.9615384615384616","","","","","","","","","",""
"null","","1659278","SARL_v6nw0j2uax","msl000059","freq_resp","","","img/orange_2bandit_b.png","70","img/orange_2bandit_b.png","70","test","","","","","","","","","2","","","","","","","","","","",""
"null","","1659433","SARL_v6nw0j2uax","msl000059","fixation","","","img/fixation.png","null","","","test","","","","","","","","","","","","","","","","","","","",""
"327","","1659766","SARL_v6nw0j2uax","msl000059","freq","","","img/orange_2bandit_b2.png","70","","70","test","1","","","circle","square","28","27","3","2","0.9629629629629629","","","","","","","","","",""
"null","","1660246","SARL_v6nw0j2uax","msl000059","freq_resp","","","img/orange_2bandit_b.png","70","img/orange_2bandit_b.png","70","test","","","","","","","","","2","","","","","","","","","","",""
"null","","1660402","SARL_v6nw0j2uax","msl000059","fixation","","","img/fixation.png","null","","","test","","","","","","","","","","","","","","","","","","","",""
"265","","1660672","SARL_v6nw0j2uax","msl000059","freq","","","img/orange_2bandit_b2.png","70","","70","test","1","","","circle","square","29","28","4","2","0.9642857142857143","","","","","","","","","",""
"null","","1661213","SARL_v6nw0j2uax","msl000059","freq_resp","","","img/orange_2bandit_b.png","70","img/orange_2bandit_b.png","70","test","","","","","","","","","2","","","","","","","","","","",""
"null","","1661369","SARL_v6nw0j2uax","msl000059","fixation","","","img/fixation.png","null","","","test","","","","","","","","","","","","","","","","","","","",""
"302","","1661676","SARL_v6nw0j2uax","msl000059","freq","","","img/orange_2bandit_b2.png","70","","70","test","1","","","circle","square","30","29","5","2","0.9655172413793104","","","","","","","","","",""
"null","","1662180","SARL_v6nw0j2uax","msl000059","freq_resp","","","img/orange_2bandit_b.png","70","img/orange_2bandit_b.png","70","test","","","","","","","","","2","","","","","","","","","","",""
"null","","1662336","SARL_v6nw0j2uax","msl000059","fixation","","","img/fixation.png","null","","","test","","","","","","","","","","","","","","","","","","","",""
"319","","1662659","SARL_v6nw0j2uax","msl000059","freq","","","img/orange_2bandit_b2.png","70","","70","test","1","","","circle","square","31","30","6","2","0.9666666666666667","","","","","","","","","",""
"null","","1663146","SARL_v6nw0j2uax","msl000059","freq_resp","","","img/orange_2bandit_b.png","70","img/orange_2bandit_b.png","70","test","","","","","","","","","2","","","","","","","","","","",""
"null","","1663301","SARL_v6nw0j2uax","msl000059","fixation","","","img/fixation.png","null","","","test","","","","","","","","","","","","","","","","","","","",""
"324","","1663631","SARL_v6nw0j2uax","msl000059","freq","","","img/orange_2bandit_b2.png","70","","70","test","1","","","circle","square","32","31","7","2","0.967741935483871","","","","","","","","","",""
"null","","1664113","SARL_v6nw0j2uax","msl000059","freq_resp","","","img/orange_2bandit_b.png","70","img/orange_2bandit_b.png","70","test","","","","","","","","","2","","","","","","","","","","",""
"null","","1664268","SARL_v6nw0j2uax","msl000059","fixation","","","img/fixation.png","null","","","test","","","","","","","","","","","","","","","","","","","",""
"290","","1664562","SARL_v6nw0j2uax","msl000059","freq","","","img/orange_2bandit_b2.png","70","","70","test","1","","","circle","square","33","32","8","2","0.96875","","","","","","","","","",""
"null","","1665077","SARL_v6nw0j2uax","msl000059","freq_resp","","","img/orange_2bandit_b.png","70","img/orange_2bandit_b.png","70","test","","","","","","","","","2","","","","","","","","","","",""
"null","","1665233","SARL_v6nw0j2uax","msl000059","fixation","","","img/fixation.png","null","","","test","","","","","","","","","","","","","","","","","","","",""
"307","","1665545","SARL_v6nw0j2uax","msl000059","freq","","","img/orange_2bandit_b2.png","70","","70","test","1","","","circle","square","34","33","9","2","0.9696969696969697","","","","","","","","","",""
"null","","1666045","SARL_v6nw0j2uax","msl000059","freq_resp","","","img/orange_2bandit_b.png","70","img/orange_2bandit_b.png","70","test","","","","","","","","","2","","","","","","","","","","",""
"null","","1666201","SARL_v6nw0j2uax","msl000059","fixation","","","img/fixation.png","null","","","test","","","","","","","","","","","","","","","","","","","",""
"320","","1666526","SARL_v6nw0j2uax","msl000059","freq","","","img/orange_2bandit_b2.png","70","","70","test","1","","","circle","square","35","34","10","2","0.9705882352941176","","","","","","","","","",""
"null","","1667012","SARL_v6nw0j2uax","msl000059","freq_resp","","","img/orange_2bandit_b.png","70","img/orange_2bandit_b.png","70","test","","","","","","","","","2","","","","","","","","","","",""
"null","","1667168","SARL_v6nw0j2uax","msl000059","fixation","","","img/fixation.png","null","","","test","","","","","","","","","","","","","","","","","","","",""
"290","","1667462","SARL_v6nw0j2uax","msl000059","freq","","","img/orange_2bandit_b2.png","70","","70","test","1","","","circle","square","36","35","11","2","0.9714285714285714","","","","","","","","","",""
"null","","1667978","SARL_v6nw0j2uax","msl000059","freq_resp","","","img/orange_2bandit_b.png","70","img/orange_2bandit_b.png","70","test","","","","","","","","","2","","","","","","","","","","",""
"null","","1668134","SARL_v6nw0j2uax","msl000059","fixation","","","img/fixation.png","null","","","test","","","","","","","","","","","","","","","","","","","",""
"255","","1668395","SARL_v6nw0j2uax","msl000059","freq","","","img/orange_2bandit_b2.png","70","","70","test","1","","","circle","square","37","36","12","2","0.9722222222222222","","","","","","","","","",""
"null","","1668945","SARL_v6nw0j2uax","msl000059","freq_resp","","","img/orange_2bandit_b.png","70","img/orange_2bandit_b.png","70","test","","","","","","","","","2","","","","","","","","","","",""
"null","","1669101","SARL_v6nw0j2uax","msl000059","fixation","","","img/fixation.png","null","","","test","","","","","","","","","","","","","","","","","","","",""
"279","","1669385","SARL_v6nw0j2uax","msl000059","freq","","","img/orange_2bandit_b2.png","70","","70","test","1","","","circle","square","38","37","13","2","0.972972972972973","","","","","","","","","",""
"null","","1669912","SARL_v6nw0j2uax","msl000059","freq_resp","","","img/orange_2bandit_b.png","70","img/orange_2bandit_b.png","70","test","","","","","","","","","2","","","","","","","","","","",""
"null","","1670068","SARL_v6nw0j2uax","msl000059","fixation","","","img/fixation.png","null","","","test","","","","","","","","","","","","","","","","","","","",""
"254","","1670326","SARL_v6nw0j2uax","msl000059","freq","","","img/orange_2bandit_b2.png","70","","70","test","1","","","circle","square","39","38","14","2","0.9736842105263158","","","","","","","","","",""
"null","","1670879","SARL_v6nw0j2uax","msl000059","freq_resp","","","img/orange_2bandit_b.png","70","img/orange_2bandit_b.png","70","test","","","","","","","","","2","","","","","","","","","","",""
"null","","1671034","SARL_v6nw0j2uax","msl000059","fixation","","","img/fixation.png","null","","","test","","","","","","","","","","","","","","","","","","","",""
"253","","1671292","SARL_v6nw0j2uax","msl000059","freq","","","img/orange_2bandit_b2.png","70","","70","test","1","","","circle","square","40","39","15","2","0.9743589743589743","","","","","","","","","",""
"null","","1671845","SARL_v6nw0j2uax","msl000059","freq_resp","","","img/orange_2bandit_b.png","70","img/orange_2bandit_b.png","70","test","","","","","","","","","2","","","","","","","","","","",""
"null","","1672001","SARL_v6nw0j2uax","msl000059","fixation","","","img/fixation.png","null","","","test","","","","","","","","","","","","","","","","","","","",""
"284","","1672289","SARL_v6nw0j2uax","msl000059","freq","","","img/orange_2bandit_b2.png","70","","70","test","1","","","circle","square","41","40","16","2","0.975","","","","","","","","","",""
"null","","1672812","SARL_v6nw0j2uax","msl000059","freq_resp","","","img/orange_2bandit_b.png","70","img/orange_2bandit_b.png","70","test","","","","","","","","","2","","","","","","","","","","",""
"null","","1672967","SARL_v6nw0j2uax","msl000059","fixation","","","img/fixation.png","null","","","test","","","","","","","","","","","","","","","","","","","",""
"294","","1673267","SARL_v6nw0j2uax","msl000059","freq","","","img/orange_2bandit_b2.png","70","","70","test","1","","","circle","square","42","41","17","2","0.975609756097561","","","","","","","","","",""
"null","","1673779","SARL_v6nw0j2uax","msl000059","freq_resp","","","img/orange_2bandit_b.png","70","img/orange_2bandit_b.png","70","test","","","","","","","","","2","","","","","","","","","","",""
"null","","1673935","SARL_v6nw0j2uax","msl000059","fixation","","","img/fixation.png","null","","","test","","","","","","","","","","","","","","","","","","","",""
"276","","1674216","SARL_v6nw0j2uax","msl000059","freq","","","img/orange_2bandit_b2.png","70","","70","test","1","","","circle","square","43","42","18","2","0.9761904761904762","","","","","","","","","",""
"null","","1674745","SARL_v6nw0j2uax","msl000059","freq_resp","","","img/orange_2bandit_b.png","70","img/orange_2bandit_b.png","70","test","","","","","","","","","2","","","","","","","","","","",""
"null","","1674902","SARL_v6nw0j2uax","msl000059","fixation","","","img/fixation.png","null","","","test","","","","","","","","","","","","","","","","","","","",""
"228","","1675134","SARL_v6nw0j2uax","msl000059","infreq","","","img/green_2bandit_b2.png","70","","68","test","0","","","circle","square","44","43","19","2","0.9534883720930233","","","","","","","","","",""
"null","","1675712","SARL_v6nw0j2uax","msl000059","infreq_resp","","","img/green_2bandit_b.png","70","img/green_2bandit_b.png","68","test","","","","","","","","","2","","","","","","","","","","",""
"null","","1675867","SARL_v6nw0j2uax","msl000059","fixation","","","img/fixation.png","null","","","test","","","","","","","","","","","","","","","","","","","",""
"316","","1676187","SARL_v6nw0j2uax","msl000059","freq","","","img/orange_2bandit_b2.png","70","","70","test","1","","","circle","square","45","44","20","2","0.9545454545454546","","","","","","","","","",""
"null","","1676677","SARL_v6nw0j2uax","msl000059","freq_resp","","","img/orange_2bandit_b.png","70","img/orange_2bandit_b.png","70","test","","","","","","","","","2","","","","","","","","","","",""
"null","","1676834","SARL_v6nw0j2uax","msl000059","fixation","","","img/fixation.png","null","","","test","","","","","","","","","","","","","","","","","","","",""
"284","","1677122","SARL_v6nw0j2uax","msl000059","freq","","","img/orange_2bandit_b2.png","70","","70","test","1","","","circle","square","46","45","21","2","0.9555555555555556","","","","","","","","","",""
"null","","1677645","SARL_v6nw0j2uax","msl000059","freq_resp","","","img/orange_2bandit_b.png","70","img/orange_2bandit_b.png","70","test","","","","","","","","","2","","","","","","","","","","",""
"null","","1677800","SARL_v6nw0j2uax","msl000059","fixation","","","img/fixation.png","null","","","test","","","","","","","","","","","","","","","","","","","",""
"305","","1678109","SARL_v6nw0j2uax","msl000059","freq","","","img/orange_2bandit_b2.png","70","","70","test","1","","","circle","square","47","46","22","2","0.9565217391304348","","","","","","","","","",""
"null","","1678610","SARL_v6nw0j2uax","msl000059","freq_resp","","","img/orange_2bandit_b.png","70","img/orange_2bandit_b.png","70","test","","","","","","","","","2","","","","","","","","","","",""
"null","","1678766","SARL_v6nw0j2uax","msl000059","fixation","","","img/fixation.png","null","","","test","","","","","","","","","","","","","","","","","","","",""
"318","","1679089","SARL_v6nw0j2uax","msl000059","freq","","","img/orange_2bandit_b2.png","70","","70","test","1","","","circle","square","48","47","23","2","0.9574468085106383","","","","","","","","","",""
"null","","1679578","SARL_v6nw0j2uax","msl000059","freq_resp","","","img/orange_2bandit_b.png","70","img/orange_2bandit_b.png","70","test","","","","","","","","","2","","","","","","","","","","",""
"null","","1679733","SARL_v6nw0j2uax","msl000059","fixation","","","img/fixation.png","null","","","test","","","","","","","","","","","","","","","","","","","",""
"429","","1680168","SARL_v6nw0j2uax","msl000059","infreq","","","img/green_2bandit_b2.png","68","","68","test","1","","","circle","square","49","48","24","2","0.9583333333333334","","","","","","","","","",""
"null","","1680545","SARL_v6nw0j2uax","msl000059","infreq_resp","","","img/green_2bandit_b.png","68","img/green_2bandit_b.png","68","test","","","","","","","","","2","","","","","","","","","","",""
"null","","1680701","SARL_v6nw0j2uax","msl000059","fixation","","","img/fixation.png","null","","","test","","","","","","","","","","","","","","","","","","","",""
"303","","1681009","SARL_v6nw0j2uax","msl000059","freq","","","img/orange_2bandit_b2.png","70","","70","test","1","","","circle","square","50","49","25","2","0.9591836734693877","","","","","","","","","",""
"null","","1681512","SARL_v6nw0j2uax","msl000059","freq_resp","","","img/orange_2bandit_b.png","70","img/orange_2bandit_b.png","70","test","","","","","","","","","2","","","","","","","","","","",""
"null","","1681669","SARL_v6nw0j2uax","msl000059","fixation","","","img/fixation.png","null","","","test","","","","","","","","","","","","","","","","","","","",""
"350","","1682023","SARL_v6nw0j2uax","msl000059","freq","","","img/orange_2bandit_b2.png","70","","70","test","1","","","circle","square","51","50","26","2","0.96","","","","","","","","","",""
"null","","1682478","SARL_v6nw0j2uax","msl000059","freq_resp","","","img/orange_2bandit_b.png","70","img/orange_2bandit_b.png","70","test","","","","","","","","","2","","","","","","","","","","",""
"null","","1682634","SARL_v6nw0j2uax","msl000059","fixation","","","img/fixation.png","null","","","test","","","","","","","","","","","","","","","","","","","",""
"518","","1683157","SARL_v6nw0j2uax","msl000059","rl","","","img/black_2bandit_b2.png","74","","0","test","","","0","circle","square","52","","0","2","","74","0.2","0.8","0.636257760199145","0.2","0.8","0.2","circle","2","0"
"null","","1683913","SARL_v6nw0j2uax","msl000059","feedback","","","img/boo_L_b.png","null","","na","test","","","","","","","","","2","","74","0.2","0.8","","","","0.2","","2",""
"484","","1684403","SARL_v6nw0j2uax","msl000059","freq","","","img/orange_2bandit_b2.png","70","","70","test","1","","","circle","square","53","51","1","3","0.9607843137254902","","","","","","","","","",""
"null","","1684724","SARL_v6nw0j2uax","msl000059","freq_resp","","","img/orange_2bandit_b.png","70","img/orange_2bandit_b.png","70","test","","","","","","","","","3","","","","","","","","","","",""
"null","","1684881","SARL_v6nw0j2uax","msl000059","fixation","","","img/fixation.png","null","","","test","","","","","","","","","","","","","","","","","","","",""
"536","","1685420","SARL_v6nw0j2uax","msl000059","freq","","","img/orange_2bandit_b2.png","70","","70","test","1","","","circle","square","54","52","2","3","0.9615384615384616","","","","","","","","","",""
"null","","1685690","SARL_v6nw0j2uax","msl000059","freq_resp","","","img/orange_2bandit_b.png","70","img/orange_2bandit_b.png","70","test","","","","","","","","","3","","","","","","","","","","",""
"null","","1685846","SARL_v6nw0j2uax","msl000059","fixation","","","img/fixation.png","null","","","test","","","","","","","","","","","","","","","","","","","",""
"380","","1686231","SARL_v6nw0j2uax","msl000059","freq","","","img/orange_2bandit_b2.png","70","","70","test","1","","","circle","square","55","53","3","3","0.9622641509433962","","","","","","","","","",""
"null","","1686657","SARL_v6nw0j2uax","msl000059","freq_resp","","","img/orange_2bandit_b.png","70","img/orange_2bandit_b.png","70","test","","","","","","","","","3","","","","","","","","","","",""
"null","","1686812","SARL_v6nw0j2uax","msl000059","fixation","","","img/fixation.png","null","","","test","","","","","","","","","","","","","","","","","","","",""
"381","","1687198","SARL_v6nw0j2uax","msl000059","freq","","","img/orange_2bandit_b2.png","70","","70","test","1","","","circle","square","56","54","4","3","0.9629629629629629","","","","","","","","","",""
"null","","1687624","SARL_v6nw0j2uax","msl000059","freq_resp","","","img/orange_2bandit_b.png","70","img/orange_2bandit_b.png","70","test","","","","","","","","","3","","","","","","","","","","",""
"null","","1687779","SARL_v6nw0j2uax","msl000059","fixation","","","img/fixation.png","null","","","test","","","","","","","","","","","","","","","","","","","",""
"432","","1688215","SARL_v6nw0j2uax","msl000059","freq","","","img/orange_2bandit_b2.png","70","","70","test","1","","","circle","square","57","55","5","3","0.9636363636363636","","","","","","","","","",""
"null","","1688588","SARL_v6nw0j2uax","msl000059","freq_resp","","","img/orange_2bandit_b.png","70","img/orange_2bandit_b.png","70","test","","","","","","","","","3","","","","","","","","","","",""
"null","","1688744","SARL_v6nw0j2uax","msl000059","fixation","","","img/fixation.png","null","","","test","","","","","","","","","","","","","","","","","","","",""
"466","","1689216","SARL_v6nw0j2uax","msl000059","freq","","","img/orange_2bandit_b2.png","70","","70","test","1","","","circle","square","58","56","6","3","0.9642857142857143","","","","","","","","","",""
"null","","1689555","SARL_v6nw0j2uax","msl000059","freq_resp","","","img/orange_2bandit_b.png","70","img/orange_2bandit_b.png","70","test","","","","","","","","","3","","","","","","","","","","",""
"null","","1689711","SARL_v6nw0j2uax","msl000059","fixation","","","img/fixation.png","null","","","test","","","","","","","","","","","","","","","","","","","",""
"467","","1690182","SARL_v6nw0j2uax","msl000059","freq","","","img/orange_2bandit_b2.png","70","","70","test","1","","","circle","square","59","57","7","3","0.9649122807017544","","","","","","","","","",""
"null","","1690522","SARL_v6nw0j2uax","msl000059","freq_resp","","","img/orange_2bandit_b.png","70","img/orange_2bandit_b.png","70","test","","","","","","","","","3","","","","","","","","","","",""
"null","","1690677","SARL_v6nw0j2uax","msl000059","fixation","","","img/fixation.png","null","","","test","","","","","","","","","","","","","","","","","","","",""
"359","","1691041","SARL_v6nw0j2uax","msl000059","freq","","","img/orange_2bandit_b2.png","70","","70","test","1","","","circle","square","60","58","8","3","0.9655172413793104","","","","","","","","","",""
"null","","1691488","SARL_v6nw0j2uax","msl000059","freq_resp","","","img/orange_2bandit_b.png","70","img/orange_2bandit_b.png","70","test","","","","","","","","","3","","","","","","","","","","",""
"null","","1691643","SARL_v6nw0j2uax","msl000059","fixation","","","img/fixation.png","null","","","test","","","","","","","","","","","","","","","","","","","",""
"356","","1692004","SARL_v6nw0j2uax","msl000059","freq","","","img/orange_2bandit_b2.png","70","","70","test","1","","","circle","square","61","59","9","3","0.9661016949152542","","","","","","","","","",""
"null","","1692455","SARL_v6nw0j2uax","msl000059","freq_resp","","","img/orange_2bandit_b.png","70","img/orange_2bandit_b.png","70","test","","","","","","","","","3","","","","","","","","","","",""
"null","","1692611","SARL_v6nw0j2uax","msl000059","fixation","","","img/fixation.png","null","","","test","","","","","","","","","","","","","","","","","","","",""
"332","","1692947","SARL_v6nw0j2uax","msl000059","freq","","","img/orange_2bandit_b2.png","70","","70","test","1","","","circle","square","62","60","10","3","0.9666666666666667","","","","","","","","","",""
"null","","1693421","SARL_v6nw0j2uax","msl000059","freq_resp","","","img/orange_2bandit_b.png","70","img/orange_2bandit_b.png","70","test","","","","","","","","","3","","","","","","","","","","",""
"null","","1693576","SARL_v6nw0j2uax","msl000059","fixation","","","img/fixation.png","null","","","test","","","","","","","","","","","","","","","","","","","",""
"360","","1693941","SARL_v6nw0j2uax","msl000059","freq","","","img/orange_2bandit_b2.png","70","","70","test","1","","","circle","square","63","61","11","3","0.9672131147540983","","","","","","","","","",""
"null","","1694386","SARL_v6nw0j2uax","msl000059","freq_resp","","","img/orange_2bandit_b.png","70","img/orange_2bandit_b.png","70","test","","","","","","","","","3","","","","","","","","","","",""
"null","","1694542","SARL_v6nw0j2uax","msl000059","fixation","","","img/fixation.png","null","","","test","","","","","","","","","","","","","","","","","","","",""
"412","","1694959","SARL_v6nw0j2uax","msl000059","infreq","","","img/green_2bandit_b2.png","68","","68","test","1","","","circle","square","64","62","12","3","0.967741935483871","","","","","","","","","",""
"null","","1695352","SARL_v6nw0j2uax","msl000059","infreq_resp","","","img/green_2bandit_b.png","68","img/green_2bandit_b.png","68","test","","","","","","","","","3","","","","","","","","","","",""
"null","","1695509","SARL_v6nw0j2uax","msl000059","fixation","","","img/fixation.png","null","","","test","","","","","","","","","","","","","","","","","","","",""
"414","","1695927","SARL_v6nw0j2uax","msl000059","freq","","","img/orange_2bandit_b2.png","70","","70","test","1","","","circle","square","65","63","13","3","0.9682539682539683","","","","","","","","","",""
"null","","1696320","SARL_v6nw0j2uax","msl000059","freq_resp","","","img/orange_2bandit_b.png","70","img/orange_2bandit_b.png","70","test","","","","","","","","","3","","","","","","","","","","",""
"null","","1696474","SARL_v6nw0j2uax","msl000059","fixation","","","img/fixation.png","null","","","test","","","","","","","","","","","","","","","","","","","",""
"413","","1696892","SARL_v6nw0j2uax","msl000059","freq","","","img/orange_2bandit_b2.png","70","","70","test","1","","","circle","square","66","64","14","3","0.96875","","","","","","","","","",""
"null","","1697284","SARL_v6nw0j2uax","msl000059","freq_resp","","","img/orange_2bandit_b.png","70","img/orange_2bandit_b.png","70","test","","","","","","","","","3","","","","","","","","","","",""
"null","","1697441","SARL_v6nw0j2uax","msl000059","fixation","","","img/fixation.png","null","","","test","","","","","","","","","","","","","","","","","","","",""
"396","","1697842","SARL_v6nw0j2uax","msl000059","freq","","","img/orange_2bandit_b2.png","70","","70","test","1","","","circle","square","67","65","15","3","0.9692307692307692","","","","","","","","","",""
"null","","1698251","SARL_v6nw0j2uax","msl000059","freq_resp","","","img/orange_2bandit_b.png","70","img/orange_2bandit_b.png","70","test","","","","","","","","","3","","","","","","","","","","",""
"null","","1698407","SARL_v6nw0j2uax","msl000059","fixation","","","img/fixation.png","null","","","test","","","","","","","","","","","","","","","","","","","",""
"403","","1698813","SARL_v6nw0j2uax","msl000059","freq","","","img/orange_2bandit_b2.png","70","","70","test","1","","","circle","square","68","66","16","3","0.9696969696969697","","","","","","","","","",""
"null","","1699216","SARL_v6nw0j2uax","msl000059","freq_resp","","","img/orange_2bandit_b.png","70","img/orange_2bandit_b.png","70","test","","","","","","","","","3","","","","","","","","","","",""
"null","","1699371","SARL_v6nw0j2uax","msl000059","fixation","","","img/fixation.png","null","","","test","","","","","","","","","","","","","","","","","","","",""
"374","","1699752","SARL_v6nw0j2uax","msl000059","freq","","","img/orange_2bandit_b2.png","70","","70","test","1","","","circle","square","69","67","17","3","0.9701492537313433","","","","","","","","","",""
"null","","1700184","SARL_v6nw0j2uax","msl000059","freq_resp","","","img/orange_2bandit_b.png","70","img/orange_2bandit_b.png","70","test","","","","","","","","","3","","","","","","","","","","",""
"null","","1700339","SARL_v6nw0j2uax","msl000059","fixation","","","img/fixation.png","null","","","test","","","","","","","","","","","","","","","","","","","",""
"412","","1700756","SARL_v6nw0j2uax","msl000059","infreq","","","img/green_2bandit_b2.png","68","","68","test","1","","","circle","square","70","68","18","3","0.9705882352941176","","","","","","","","","",""
"null","","1701150","SARL_v6nw0j2uax","msl000059","infreq_resp","","","img/green_2bandit_b.png","68","img/green_2bandit_b.png","68","test","","","","","","","","","3","","","","","","","","","","",""
"null","","1701306","SARL_v6nw0j2uax","msl000059","fixation","","","img/fixation.png","null","","","test","","","","","","","","","","","","","","","","","","","",""
"317","","1701627","SARL_v6nw0j2uax","msl000059","freq","","","img/orange_2bandit_b2.png","70","","70","test","1","","","circle","square","71","69","19","3","0.9710144927536232","","","","","","","","","",""
"null","","1702117","SARL_v6nw0j2uax","msl000059","freq_resp","","","img/orange_2bandit_b.png","70","img/orange_2bandit_b.png","70","test","","","","","","","","","3","","","","","","","","","","",""
"null","","1702272","SARL_v6nw0j2uax","msl000059","fixation","","","img/fixation.png","null","","","test","","","","","","","","","","","","","","","","","","","",""
"283","","1702560","SARL_v6nw0j2uax","msl000059","freq","","","img/orange_2bandit_b2.png","70","","70","test","1","","","circle","square","72","70","20","3","0.9714285714285714","","","","","","","","","",""
"null","","1703083","SARL_v6nw0j2uax","msl000059","freq_resp","","","img/orange_2bandit_b.png","70","img/orange_2bandit_b.png","70","test","","","","","","","","","3","","","","","","","","","","",""
"null","","1703238","SARL_v6nw0j2uax","msl000059","fixation","","","img/fixation.png","null","","","test","","","","","","","","","","","","","","","","","","","",""
"323","","1703566","SARL_v6nw0j2uax","msl000059","freq","","","img/orange_2bandit_b2.png","70","","70","test","1","","","circle","square","73","71","21","3","0.971830985915493","","","","","","","","","",""
"null","","1704049","SARL_v6nw0j2uax","msl000059","freq_resp","","","img/orange_2bandit_b.png","70","img/orange_2bandit_b.png","70","test","","","","","","","","","3","","","","","","","","","","",""
"null","","1704204","SARL_v6nw0j2uax","msl000059","fixation","","","img/fixation.png","null","","","test","","","","","","","","","","","","","","","","","","","",""
"281","","1704489","SARL_v6nw0j2uax","msl000059","freq","","","img/orange_2bandit_b2.png","70","","70","test","1","","","circle","square","74","72","22","3","0.9722222222222222","","","","","","","","","",""
"null","","1705015","SARL_v6nw0j2uax","msl000059","freq_resp","","","img/orange_2bandit_b.png","70","img/orange_2bandit_b.png","70","test","","","","","","","","","3","","","","","","","","","","",""
"null","","1705170","SARL_v6nw0j2uax","msl000059","fixation","","","img/fixation.png","null","","","test","","","","","","","","","","","","","","","","","","","",""
"276","","1705451","SARL_v6nw0j2uax","msl000059","freq","","","img/orange_2bandit_b2.png","70","","70","test","1","","","circle","square","75","73","23","3","0.9726027397260274","","","","","","","","","",""
"null","","1705982","SARL_v6nw0j2uax","msl000059","freq_resp","","","img/orange_2bandit_b.png","70","img/orange_2bandit_b.png","70","test","","","","","","","","","3","","","","","","","","","","",""
"null","","1706138","SARL_v6nw0j2uax","msl000059","fixation","","","img/fixation.png","null","","","test","","","","","","","","","","","","","","","","","","","",""
"293","","1706436","SARL_v6nw0j2uax","msl000059","freq","","","img/orange_2bandit_b2.png","70","","70","test","1","","","circle","square","76","74","24","3","0.972972972972973","","","","","","","","","",""
"null","","1706948","SARL_v6nw0j2uax","msl000059","freq_resp","","","img/orange_2bandit_b.png","70","img/orange_2bandit_b.png","70","test","","","","","","","","","3","","","","","","","","","","",""
"null","","1707104","SARL_v6nw0j2uax","msl000059","fixation","","","img/fixation.png","null","","","test","","","","","","","","","","","","","","","","","","","",""
"null","","1707910","SARL_v6nw0j2uax","msl000059","infreq","","","img/green_2bandit_b2.png","null","","68","test","0","","","circle","square","77","75","25","3","0.96","","","","","","","","","",""
"null","","1708066","SARL_v6nw0j2uax","msl000059","fixation","","","img/fixation.png","null","","","test","","","","","","","","","","","","","","","","","","","",""
"462","","1708533","SARL_v6nw0j2uax","msl000059","freq","","","img/orange_2bandit_b2.png","70","","70","test","1","","","circle","square","78","76","26","3","0.9605263157894737","","","","","","","","","",""
"null","","1708878","SARL_v6nw0j2uax","msl000059","freq_resp","","","img/orange_2bandit_b.png","70","img/orange_2bandit_b.png","70","test","","","","","","","","","3","","","","","","","","","","",""
"null","","1709034","SARL_v6nw0j2uax","msl000059","fixation","","","img/fixation.png","null","","","test","","","","","","","","","","","","","","","","","","","",""
"530","","1709569","SARL_v6nw0j2uax","msl000059","freq","","","img/orange_2bandit_b2.png","70","","70","test","1","","","circle","square","79","77","27","3","0.961038961038961","","","","","","","","","",""
"null","","1709845","SARL_v6nw0j2uax","msl000059","freq_resp","","","img/orange_2bandit_b.png","70","img/orange_2bandit_b.png","70","test","","","","","","","","","3","","","","","","","","","","",""
"null","","1710001","SARL_v6nw0j2uax","msl000059","fixation","","","img/fixation.png","null","","","test","","","","","","","","","","","","","","","","","","","",""
"670","","1710675","SARL_v6nw0j2uax","msl000059","rl","","","img/black_2bandit_b2.png","75","","0","test","","","1","circle","square","80","","0","3","","75","0.2","0.8","0.22796180889785556","0.2","0.8","0.8","square","3","0"
"null","","1711431","SARL_v6nw0j2uax","msl000059","feedback","","","img/yay_R_b.png","null","","na","test","","","","","","","","","3","","75","0.2","0.8","","","","0.8","","3",""
"471","","1711906","SARL_v6nw0j2uax","msl000059","freq","","","img/orange_2bandit_b2.png","70","","70","test","1","","","circle","square","81","78","1","4","0.9615384615384616","","","","","","","","","",""
"null","","1712241","SARL_v6nw0j2uax","msl000059","freq_resp","","","img/orange_2bandit_b.png","70","img/orange_2bandit_b.png","70","test","","","","","","","","","4","","","","","","","","","","",""
"null","","1712399","SARL_v6nw0j2uax","msl000059","fixation","","","img/fixation.png","null","","","test","","","","","","","","","","","","","","","","","","","",""
"342","","1712745","SARL_v6nw0j2uax","msl000059","freq","","","img/orange_2bandit_b2.png","70","","70","test","1","","","circle","square","82","79","2","4","0.9620253164556962","","","","","","","","","",""
"null","","1713209","SARL_v6nw0j2uax","msl000059","freq_resp","","","img/orange_2bandit_b.png","70","img/orange_2bandit_b.png","70","test","","","","","","","","","4","","","","","","","","","","",""
"null","","1713365","SARL_v6nw0j2uax","msl000059","fixation","","","img/fixation.png","null","","","test","","","","","","","","","","","","","","","","","","","",""
"314","","1713683","SARL_v6nw0j2uax","msl000059","freq","","","img/orange_2bandit_b2.png","70","","70","test","1","","","circle","square","83","80","3","4","0.9625","","","","","","","","","",""
"null","","1714175","SARL_v6nw0j2uax","msl000059","freq_resp","","","img/orange_2bandit_b.png","70","img/orange_2bandit_b.png","70","test","","","","","","","","","4","","","","","","","","","","",""
"null","","1714331","SARL_v6nw0j2uax","msl000059","fixation","","","img/fixation.png","null","","","test","","","","","","","","","","","","","","","","","","","",""
"346","","1714681","SARL_v6nw0j2uax","msl000059","freq","","","img/orange_2bandit_b2.png","70","","70","test","1","","","circle","square","84","81","4","4","0.9629629629629629","","","","","","","","","",""
"null","","1715141","SARL_v6nw0j2uax","msl000059","freq_resp","","","img/orange_2bandit_b.png","70","img/orange_2bandit_b.png","70","test","","","","","","","","","4","","","","","","","","","","",""
"null","","1715295","SARL_v6nw0j2uax","msl000059","fixation","","","img/fixation.png","null","","","test","","","","","","","","","","","","","","","","","","","",""
"424","","1715724","SARL_v6nw0j2uax","msl000059","infreq","","","img/green_2bandit_b2.png","68","","68","test","1","","","circle","square","85","82","5","4","0.9634146341463414","","","","","","","","","",""
"null","","1716107","SARL_v6nw0j2uax","msl000059","infreq_resp","","","img/green_2bandit_b.png","68","img/green_2bandit_b.png","68","test","","","","","","","","","4","","","","","","","","","","",""
"null","","1716264","SARL_v6nw0j2uax","msl000059","fixation","","","img/fixation.png","null","","","test","","","","","","","","","","","","","","","","","","","",""
"330","","1716599","SARL_v6nw0j2uax","msl000059","freq","","","img/orange_2bandit_b2.png","70","","70","test","1","","","circle","square","86","83","6","4","0.963855421686747","","","","","","","","","",""
"null","","1717075","SARL_v6nw0j2uax","msl000059","freq_resp","","","img/orange_2bandit_b.png","70","img/orange_2bandit_b.png","70","test","","","","","","","","","4","","","","","","","","","","",""
"null","","1717232","SARL_v6nw0j2uax","msl000059","fixation","","","img/fixation.png","null","","","test","","","","","","","","","","","","","","","","","","","",""
"341","","1717577","SARL_v6nw0j2uax","msl000059","freq","","","img/orange_2bandit_b2.png","70","","70","test","1","","","circle","square","87","84","7","4","0.9642857142857143","","","","","","","","","",""
"null","","1718042","SARL_v6nw0j2uax","msl000059","freq_resp","","","img/orange_2bandit_b.png","70","img/orange_2bandit_b.png","70","test","","","","","","","","","4","","","","","","","","","","",""
"null","","1718198","SARL_v6nw0j2uax","msl000059","fixation","","","img/fixation.png","null","","","test","","","","","","","","","","","","","","","","","","","",""
"316","","1718519","SARL_v6nw0j2uax","msl000059","freq","","","img/orange_2bandit_b2.png","70","","70","test","1","","","circle","square","88","85","8","4","0.9647058823529412","","","","","","","","","",""
"null","","1719009","SARL_v6nw0j2uax","msl000059","freq_resp","","","img/orange_2bandit_b.png","70","img/orange_2bandit_b.png","70","test","","","","","","","","","4","","","","","","","","","","",""
"null","","1719165","SARL_v6nw0j2uax","msl000059","fixation","","","img/fixation.png","null","","","test","","","","","","","","","","","","","","","","","","","",""
"323","","1719492","SARL_v6nw0j2uax","msl000059","freq","","","img/orange_2bandit_b2.png","70","","70","test","1","","","circle","square","89","86","9","4","0.9651162790697675","","","","","","","","","",""
"null","","1719974","SARL_v6nw0j2uax","msl000059","freq_resp","","","img/orange_2bandit_b.png","70","img/orange_2bandit_b.png","70","test","","","","","","","","","4","","","","","","","","","","",""
"null","","1720130","SARL_v6nw0j2uax","msl000059","fixation","","","img/fixation.png","null","","","test","","","","","","","","","","","","","","","","","","","",""
"343","","1720476","SARL_v6nw0j2uax","msl000059","freq","","","img/orange_2bandit_b2.png","70","","70","test","1","","","circle","square","90","87","10","4","0.9655172413793104","","","","","","","","","",""
"null","","1720940","SARL_v6nw0j2uax","msl000059","freq_resp","","","img/orange_2bandit_b.png","70","img/orange_2bandit_b.png","70","test","","","","","","","","","4","","","","","","","","","","",""
"null","","1721096","SARL_v6nw0j2uax","msl000059","fixation","","","img/fixation.png","null","","","test","","","","","","","","","","","","","","","","","","","",""
"289","","1721389","SARL_v6nw0j2uax","msl000059","freq","","","img/orange_2bandit_b2.png","70","","70","test","1","","","circle","square","91","88","11","4","0.9659090909090909","","","","","","","","","",""
"null","","1721905","SARL_v6nw0j2uax","msl000059","freq_resp","","","img/orange_2bandit_b.png","70","img/orange_2bandit_b.png","70","test","","","","","","","","","4","","","","","","","","","","",""
"null","","1722061","SARL_v6nw0j2uax","msl000059","fixation","","","img/fixation.png","null","","","test","","","","","","","","","","","","","","","","","","","",""
"316","","1722382","SARL_v6nw0j2uax","msl000059","freq","","","img/orange_2bandit_b2.png","70","","70","test","1","","","circle","square","92","89","12","4","0.9662921348314607","","","","","","","","","",""
"null","","1722871","SARL_v6nw0j2uax","msl000059","freq_resp","","","img/orange_2bandit_b.png","70","img/orange_2bandit_b.png","70","test","","","","","","","","","4","","","","","","","","","","",""
"null","","1723027","SARL_v6nw0j2uax","msl000059","fixation","","","img/fixation.png","null","","","test","","","","","","","","","","","","","","","","","","","",""
"315","","1723346","SARL_v6nw0j2uax","msl000059","freq","","","img/orange_2bandit_b2.png","70","","70","test","1","","","circle","square","93","90","13","4","0.9666666666666667","","","","","","","","","",""
"null","","1723839","SARL_v6nw0j2uax","msl000059","freq_resp","","","img/orange_2bandit_b.png","70","img/orange_2bandit_b.png","70","test","","","","","","","","","4","","","","","","","","","","",""
"null","","1723994","SARL_v6nw0j2uax","msl000059","fixation","","","img/fixation.png","null","","","test","","","","","","","","","","","","","","","","","","","",""
"266","","1724265","SARL_v6nw0j2uax","msl000059","freq","","","img/orange_2bandit_b2.png","70","","70","test","1","","","circle","square","94","91","14","4","0.967032967032967","","","","","","","","","",""
"null","","1724805","SARL_v6nw0j2uax","msl000059","freq_resp","","","img/orange_2bandit_b.png","70","img/orange_2bandit_b.png","70","test","","","","","","","","","4","","","","","","","","","","",""
"null","","1724960","SARL_v6nw0j2uax","msl000059","fixation","","","img/fixation.png","null","","","test","","","","","","","","","","","","","","","","","","","",""
"null","","1725766","SARL_v6nw0j2uax","msl000059","infreq","","","img/green_2bandit_b2.png","null","","68","test","0","","","circle","square","95","92","15","4","0.9565217391304348","","","","","","","","","",""
"null","","1725921","SARL_v6nw0j2uax","msl000059","fixation","","","img/fixation.png","null","","","test","","","","","","","","","","","","","","","","","","","",""
"471","","1726397","SARL_v6nw0j2uax","msl000059","freq","","","img/orange_2bandit_b2.png","70","","70","test","1","","","circle","square","96","93","16","4","0.956989247311828","","","","","","","","","",""
"null","","1726732","SARL_v6nw0j2uax","msl000059","freq_resp","","","img/orange_2bandit_b.png","70","img/orange_2bandit_b.png","70","test","","","","","","","","","4","","","","","","","","","","",""
"null","","1726889","SARL_v6nw0j2uax","msl000059","fixation","","","img/fixation.png","null","","","test","","","","","","","","","","","","","","","","","","","",""
"352","","1727245","SARL_v6nw0j2uax","msl000059","freq","","","img/orange_2bandit_b2.png","70","","70","test","1","","","circle","square","97","94","17","4","0.9574468085106383","","","","","","","","","",""
"null","","1727700","SARL_v6nw0j2uax","msl000059","freq_resp","","","img/orange_2bandit_b.png","70","img/orange_2bandit_b.png","70","test","","","","","","","","","4","","","","","","","","","","",""
"null","","1727855","SARL_v6nw0j2uax","msl000059","fixation","","","img/fixation.png","null","","","test","","","","","","","","","","","","","","","","","","","",""
"353","","1728215","SARL_v6nw0j2uax","msl000059","freq","","","img/orange_2bandit_b2.png","70","","70","test","1","","","circle","square","98","95","18","4","0.9578947368421052","","","","","","","","","",""
"null","","1728668","SARL_v6nw0j2uax","msl000059","freq_resp","","","img/orange_2bandit_b.png","70","img/orange_2bandit_b.png","70","test","","","","","","","","","4","","","","","","","","","","",""
"null","","1728823","SARL_v6nw0j2uax","msl000059","fixation","","","img/fixation.png","null","","","test","","","","","","","","","","","","","","","","","","","",""
"294","","1729122","SARL_v6nw0j2uax","msl000059","freq","","","img/orange_2bandit_b2.png","70","","70","test","1","","","circle","square","99","96","19","4","0.9583333333333334","","","","","","","","","",""
"null","","1729633","SARL_v6nw0j2uax","msl000059","freq_resp","","","img/orange_2bandit_b.png","70","img/orange_2bandit_b.png","70","test","","","","","","","","","4","","","","","","","","","","",""
"null","","1729787","SARL_v6nw0j2uax","msl000059","fixation","","","img/fixation.png","null","","","test","","","","","","","","","","","","","","","","","","","",""
"289","","1730081","SARL_v6nw0j2uax","msl000059","freq","","","img/orange_2bandit_b2.png","70","","70","test","1","","","circle","square","100","97","20","4","0.9587628865979382","","","","","","","","","",""
"null","","1730597","SARL_v6nw0j2uax","msl000059","freq_resp","","","img/orange_2bandit_b.png","70","img/orange_2bandit_b.png","70","test","","","","","","","","","4","","","","","","","","","","",""
"null","","1730753","SARL_v6nw0j2uax","msl000059","fixation","","","img/fixation.png","null","","","test","","","","","","","","","","","","","","","","","","","",""
"332","","1731091","SARL_v6nw0j2uax","msl000059","freq","","","img/orange_2bandit_b2.png","70","","70","test","1","","","circle","square","101","98","21","4","0.9591836734693877","","","","","","","","","",""
"null","","1731565","SARL_v6nw0j2uax","msl000059","freq_resp","","","img/orange_2bandit_b.png","70","img/orange_2bandit_b.png","70","test","","","","","","","","","4","","","","","","","","","","",""
"null","","1731720","SARL_v6nw0j2uax","msl000059","fixation","","","img/fixation.png","null","","","test","","","","","","","","","","","","","","","","","","","",""
"334","","1732058","SARL_v6nw0j2uax","msl000059","freq","","","img/orange_2bandit_b2.png","70","","70","test","1","","","circle","square","102","99","22","4","0.9595959595959596","","","","","","","","","",""
"null","","1732530","SARL_v6nw0j2uax","msl000059","freq_resp","","","img/orange_2bandit_b.png","70","img/orange_2bandit_b.png","70","test","","","","","","","","","4","","","","","","","","","","",""
"null","","1732685","SARL_v6nw0j2uax","msl000059","fixation","","","img/fixation.png","null","","","test","","","","","","","","","","","","","","","","","","","",""
"316","","1733007","SARL_v6nw0j2uax","msl000059","freq","","","img/orange_2bandit_b2.png","70","","70","test","1","","","circle","square","103","100","23","4","0.96","","","","","","","","","",""
"null","","1733497","SARL_v6nw0j2uax","msl000059","freq_resp","","","img/orange_2bandit_b.png","70","img/orange_2bandit_b.png","70","test","","","","","","","","","4","","","","","","","","","","",""
"null","","1733652","SARL_v6nw0j2uax","msl000059","fixation","","","img/fixation.png","null","","","test","","","","","","","","","","","","","","","","","","","",""
"338","","1733996","SARL_v6nw0j2uax","msl000059","freq","","","img/orange_2bandit_b2.png","70","","70","test","1","","","circle","square","104","101","24","4","0.9603960396039604","","","","","","","","","",""
"null","","1734464","SARL_v6nw0j2uax","msl000059","freq_resp","","","img/orange_2bandit_b.png","70","img/orange_2bandit_b.png","70","test","","","","","","","","","4","","","","","","","","","","",""
"null","","1734620","SARL_v6nw0j2uax","msl000059","fixation","","","img/fixation.png","null","","","test","","","","","","","","","","","","","","","","","","","",""
"330","","1734955","SARL_v6nw0j2uax","msl000059","freq","","","img/orange_2bandit_b2.png","70","","70","test","1","","","circle","square","105","102","25","4","0.9607843137254902","","","","","","","","","",""
"null","","1735431","SARL_v6nw0j2uax","msl000059","freq_resp","","","img/orange_2bandit_b.png","70","img/orange_2bandit_b.png","70","test","","","","","","","","","4","","","","","","","","","","",""
"null","","1735585","SARL_v6nw0j2uax","msl000059","fixation","","","img/fixation.png","null","","","test","","","","","","","","","","","","","","","","","","","",""
"288","","1735878","SARL_v6nw0j2uax","msl000059","freq","","","img/orange_2bandit_b2.png","70","","70","test","1","","","circle","square","106","103","26","4","0.9611650485436893","","","","","","","","","",""
"null","","1736396","SARL_v6nw0j2uax","msl000059","freq_resp","","","img/orange_2bandit_b.png","70","img/orange_2bandit_b.png","70","test","","","","","","","","","4","","","","","","","","","","",""
"null","","1736551","SARL_v6nw0j2uax","msl000059","fixation","","","img/fixation.png","null","","","test","","","","","","","","","","","","","","","","","","","",""
"323","","1736880","SARL_v6nw0j2uax","msl000059","freq","","","img/orange_2bandit_b2.png","70","","70","test","1","","","circle","square","107","104","27","4","0.9615384615384616","","","","","","","","","",""
"null","","1737364","SARL_v6nw0j2uax","msl000059","freq_resp","","","img/orange_2bandit_b.png","70","img/orange_2bandit_b.png","70","test","","","","","","","","","4","","","","","","","","","","",""
"null","","1737519","SARL_v6nw0j2uax","msl000059","fixation","","","img/fixation.png","null","","","test","","","","","","","","","","","","","","","","","","","",""
"361","","1737885","SARL_v6nw0j2uax","msl000059","freq","","","img/orange_2bandit_b2.png","70","","70","test","1","","","circle","square","108","105","28","4","0.9619047619047619","","","","","","","","","",""
"null","","1738330","SARL_v6nw0j2uax","msl000059","freq_resp","","","img/orange_2bandit_b.png","70","img/orange_2bandit_b.png","70","test","","","","","","","","","4","","","","","","","","","","",""
"null","","1738485","SARL_v6nw0j2uax","msl000059","fixation","","","img/fixation.png","null","","","test","","","","","","","","","","","","","","","","","","","",""
"333","","1738824","SARL_v6nw0j2uax","msl000059","freq","","","img/orange_2bandit_b2.png","70","","70","test","1","","","circle","square","109","106","29","4","0.9622641509433962","","","","","","","","","",""
"null","","1739296","SARL_v6nw0j2uax","msl000059","freq_resp","","","img/orange_2bandit_b.png","70","img/orange_2bandit_b.png","70","test","","","","","","","","","4","","","","","","","","","","",""
"null","","1739452","SARL_v6nw0j2uax","msl000059","fixation","","","img/fixation.png","null","","","test","","","","","","","","","","","","","","","","","","","",""
"550","","1740006","SARL_v6nw0j2uax","msl000059","rl","","","img/black_2bandit_b2.png","74","","0","test","","","0","circle","square","110","","0","4","","74","0.2","0.8","0.6479377676963801","0.2","0.8","0.2","circle","4","0"
"null","","1740762","SARL_v6nw0j2uax","msl000059","feedback","","","img/boo_L_b.png","null","","na","test","","","","","","","","","4","","74","0.2","0.8","","","","0.2","","4",""
"334","","1741100","SARL_v6nw0j2uax","msl000059","freq","","","img/orange_2bandit_b2.png","70","","70","test","1","","","circle","square","111","107","1","5","0.9626168224299065","","","","","","","","","",""
"null","","1741572","SARL_v6nw0j2uax","msl000059","freq_resp","","","img/orange_2bandit_b.png","70","img/orange_2bandit_b.png","70","test","","","","","","","","","5","","","","","","","","","","",""
"null","","1741727","SARL_v6nw0j2uax","msl000059","fixation","","","img/fixation.png","null","","","test","","","","","","","","","","","","","","","","","","","",""
"453","","1742184","SARL_v6nw0j2uax","msl000059","infreq","","","img/green_2bandit_b2.png","68","","68","test","1","","","circle","square","112","108","2","5","0.9629629629629629","","","","","","","","","",""
"null","","1742537","SARL_v6nw0j2uax","msl000059","infreq_resp","","","img/green_2bandit_b.png","68","img/green_2bandit_b.png","68","test","","","","","","","","","5","","","","","","","","","","",""
"null","","1742693","SARL_v6nw0j2uax","msl000059","fixation","","","img/fixation.png","null","","","test","","","","","","","","","","","","","","","","","","","",""
"285","","1742982","SARL_v6nw0j2uax","msl000059","freq","","","img/orange_2bandit_b2.png","70","","70","test","1","","","circle","square","113","109","3","5","0.963302752293578","","","","","","","","","",""
"null","","1743503","SARL_v6nw0j2uax","msl000059","freq_resp","","","img/orange_2bandit_b.png","70","img/orange_2bandit_b.png","70","test","","","","","","","","","5","","","","","","","","","","",""
"null","","1743659","SARL_v6nw0j2uax","msl000059","fixation","","","img/fixation.png","null","","","test","","","","","","","","","","","","","","","","","","","",""
"334","","1743998","SARL_v6nw0j2uax","msl000059","freq","","","img/orange_2bandit_b2.png","70","","70","test","1","","","circle","square","114","110","4","5","0.9636363636363636","","","","","","","","","",""
"null","","1744469","SARL_v6nw0j2uax","msl000059","freq_resp","","","img/orange_2bandit_b.png","70","img/orange_2bandit_b.png","70","test","","","","","","","","","5","","","","","","","","","","",""
"null","","1744626","SARL_v6nw0j2uax","msl000059","fixation","","","img/fixation.png","null","","","test","","","","","","","","","","","","","","","","","","","",""
"404","","1745035","SARL_v6nw0j2uax","msl000059","freq","","","img/orange_2bandit_b2.png","70","","70","test","1","","","circle","square","115","111","5","5","0.963963963963964","","","","","","","","","",""
"null","","1745437","SARL_v6nw0j2uax","msl000059","freq_resp","","","img/orange_2bandit_b.png","70","img/orange_2bandit_b.png","70","test","","","","","","","","","5","","","","","","","","","","",""
"null","","1745593","SARL_v6nw0j2uax","msl000059","fixation","","","img/fixation.png","null","","","test","","","","","","","","","","","","","","","","","","","",""
"336","","1745933","SARL_v6nw0j2uax","msl000059","freq","","","img/orange_2bandit_b2.png","70","","70","test","1","","","circle","square","116","112","6","5","0.9642857142857143","","","","","","","","","",""
"null","","1746403","SARL_v6nw0j2uax","msl000059","freq_resp","","","img/orange_2bandit_b.png","70","img/orange_2bandit_b.png","70","test","","","","","","","","","5","","","","","","","","","","",""
"null","","1746558","SARL_v6nw0j2uax","msl000059","fixation","","","img/fixation.png","null","","","test","","","","","","","","","","","","","","","","","","","",""
"425","","1746987","SARL_v6nw0j2uax","msl000059","freq","","","img/orange_2bandit_b2.png","70","","70","test","1","","","circle","square","117","113","7","5","0.9646017699115044","","","","","","","","","",""
"null","","1747368","SARL_v6nw0j2uax","msl000059","freq_resp","","","img/orange_2bandit_b.png","70","img/orange_2bandit_b.png","70","test","","","","","","","","","5","","","","","","","","","","",""
"null","","1747524","SARL_v6nw0j2uax","msl000059","fixation","","","img/fixation.png","null","","","test","","","","","","","","","","","","","","","","","","","",""
"443","","1747971","SARL_v6nw0j2uax","msl000059","freq","","","img/orange_2bandit_b2.png","70","","70","test","1","","","circle","square","118","114","8","5","0.9649122807017544","","","","","","","","","",""
"null","","1748334","SARL_v6nw0j2uax","msl000059","freq_resp","","","img/orange_2bandit_b.png","70","img/orange_2bandit_b.png","70","test","","","","","","","","","5","","","","","","","","","","",""
"null","","1748489","SARL_v6nw0j2uax","msl000059","fixation","","","img/fixation.png","null","","","test","","","","","","","","","","","","","","","","","","","",""
"509","","1749003","SARL_v6nw0j2uax","msl000059","freq","","","img/orange_2bandit_b2.png","70","","70","test","1","","","circle","square","119","115","9","5","0.9652173913043478","","","","","","","","","",""
"null","","1749300","SARL_v6nw0j2uax","msl000059","freq_resp","","","img/orange_2bandit_b.png","70","img/orange_2bandit_b.png","70","test","","","","","","","","","5","","","","","","","","","","",""
"null","","1749456","SARL_v6nw0j2uax","msl000059","fixation","","","img/fixation.png","null","","","test","","","","","","","","","","","","","","","","","","","",""
"422","","1749883","SARL_v6nw0j2uax","msl000059","freq","","","img/orange_2bandit_b2.png","70","","70","test","1","","","circle","square","120","116","10","5","0.9655172413793104","","","","","","","","","",""
"null","","1750268","SARL_v6nw0j2uax","msl000059","freq_resp","","","img/orange_2bandit_b.png","70","img/orange_2bandit_b.png","70","test","","","","","","","","","5","","","","","","","","","","",""
"null","","1750422","SARL_v6nw0j2uax","msl000059","fixation","","","img/fixation.png","null","","","test","","","","","","","","","","","","","","","","","","","",""
"412","","1750840","SARL_v6nw0j2uax","msl000059","freq","","","img/orange_2bandit_b2.png","70","","70","test","1","","","circle","square","121","117","11","5","0.9658119658119658","","","","","","","","","",""
"null","","1751234","SARL_v6nw0j2uax","msl000059","freq_resp","","","img/orange_2bandit_b.png","70","img/orange_2bandit_b.png","70","test","","","","","","","","","5","","","","","","","","","","",""
"null","","1751390","SARL_v6nw0j2uax","msl000059","fixation","","","img/fixation.png","null","","","test","","","","","","","","","","","","","","","","","","","",""
"null","","1752196","SARL_v6nw0j2uax","msl000059","infreq","","","img/green_2bandit_b2.png","null","","68","test","0","","","circle","square","122","118","12","5","0.9576271186440678","","","","","","","","","",""
"null","","1752352","SARL_v6nw0j2uax","msl000059","fixation","","","img/fixation.png","null","","","test","","","","","","","","","","","","","","","","","","","",""
"504","","1752861","SARL_v6nw0j2uax","msl000059","freq","","","img/orange_2bandit_b2.png","70","","70","test","1","","","circle","square","123","119","13","5","0.957983193277311","","","","","","","","","",""
"null","","1753163","SARL_v6nw0j2uax","msl000059","freq_resp","","","img/orange_2bandit_b.png","70","img/orange_2bandit_b.png","70","test","","","","","","","","","5","","","","","","","","","","",""
"null","","1753319","SARL_v6nw0j2uax","msl000059","fixation","","","img/fixation.png","null","","","test","","","","","","","","","","","","","","","","","","","",""
"null","","1754125","SARL_v6nw0j2uax","msl000059","infreq","","","img/green_2bandit_b2.png","null","","68","test","0","","","circle","square","124","120","14","5","0.95","","","","","","","","","",""
"null","","1754282","SARL_v6nw0j2uax","msl000059","fixation","","","img/fixation.png","null","","","test","","","","","","","","","","","","","","","","","","","",""
"150","","1754436","SARL_v6nw0j2uax","msl000059","freq","","","img/orange_2bandit_b2.png","68","","70","test","0","","","circle","square","125","121","15","5","0.9421487603305785","","","","","","","","","",""
"null","","1755091","SARL_v6nw0j2uax","msl000059","freq_resp","","","img/orange_2bandit_b.png","68","img/orange_2bandit_b.png","70","test","","","","","","","","","5","","","","","","","","","","",""
"null","","1755246","SARL_v6nw0j2uax","msl000059","fixation","","","img/fixation.png","null","","","test","","","","","","","","","","","","","","","","","","","",""
"326","","1755578","SARL_v6nw0j2uax","msl000059","freq","","","img/orange_2bandit_b2.png","70","","70","test","1","","","circle","square","126","122","16","5","0.9426229508196722","","","","","","","","","",""
"null","","1756058","SARL_v6nw0j2uax","msl000059","freq_resp","","","img/orange_2bandit_b.png","70","img/orange_2bandit_b.png","70","test","","","","","","","","","5","","","","","","","","","","",""
"null","","1756214","SARL_v6nw0j2uax","msl000059","fixation","","","img/fixation.png","null","","","test","","","","","","","","","","","","","","","","","","","",""
"284","","1756503","SARL_v6nw0j2uax","msl000059","freq","","","img/orange_2bandit_b2.png","70","","70","test","1","","","circle","square","127","123","17","5","0.943089430894309","","","","","","","","","",""
"null","","1757024","SARL_v6nw0j2uax","msl000059","freq_resp","","","img/orange_2bandit_b.png","70","img/orange_2bandit_b.png","70","test","","","","","","","","","5","","","","","","","","","","",""
"null","","1757178","SARL_v6nw0j2uax","msl000059","fixation","","","img/fixation.png","null","","","test","","","","","","","","","","","","","","","","","","","",""
"259","","1757441","SARL_v6nw0j2uax","msl000059","freq","","","img/orange_2bandit_b2.png","70","","70","test","1","","","circle","square","128","124","18","5","0.9435483870967742","","","","","","","","","",""
"null","","1757988","SARL_v6nw0j2uax","msl000059","freq_resp","","","img/orange_2bandit_b.png","70","img/orange_2bandit_b.png","70","test","","","","","","","","","5","","","","","","","","","","",""
"null","","1758144","SARL_v6nw0j2uax","msl000059","fixation","","","img/fixation.png","null","","","test","","","","","","","","","","","","","","","","","","","",""
"280","","1758429","SARL_v6nw0j2uax","msl000059","freq","","","img/orange_2bandit_b2.png","70","","70","test","1","","","circle","square","129","125","19","5","0.944","","","","","","","","","",""
"null","","1758955","SARL_v6nw0j2uax","msl000059","freq_resp","","","img/orange_2bandit_b.png","70","img/orange_2bandit_b.png","70","test","","","","","","","","","5","","","","","","","","","","",""
"null","","1759110","SARL_v6nw0j2uax","msl000059","fixation","","","img/fixation.png","null","","","test","","","","","","","","","","","","","","","","","","","",""
"267","","1759383","SARL_v6nw0j2uax","msl000059","freq","","","img/orange_2bandit_b2.png","70","","70","test","1","","","circle","square","130","126","20","5","0.9444444444444444","","","","","","","","","",""
"null","","1759921","SARL_v6nw0j2uax","msl000059","freq_resp","","","img/orange_2bandit_b.png","70","img/orange_2bandit_b.png","70","test","","","","","","","","","5","","","","","","","","","","",""
"null","","1760078","SARL_v6nw0j2uax","msl000059","fixation","","","img/fixation.png","null","","","test","","","","","","","","","","","","","","","","","","","",""
"329","","1760410","SARL_v6nw0j2uax","msl000059","freq","","","img/orange_2bandit_b2.png","70","","70","test","1","","","circle","square","131","127","21","5","0.9448818897637795","","","","","","","","","",""
"null","","1760887","SARL_v6nw0j2uax","msl000059","freq_resp","","","img/orange_2bandit_b.png","70","img/orange_2bandit_b.png","70","test","","","","","","","","","5","","","","","","","","","","",""
"null","","1761043","SARL_v6nw0j2uax","msl000059","fixation","","","img/fixation.png","null","","","test","","","","","","","","","","","","","","","","","","","",""
"511","","1761559","SARL_v6nw0j2uax","msl000059","rl","","","img/black_2bandit_b2.png","75","","0","test","","","1","circle","square","132","","0","5","","75","0.2","0.8","0.6709987634716803","0.2","0.8","0.8","square","5","0"
"null","","1762315","SARL_v6nw0j2uax","msl000059","feedback","","","img/yay_R_b.png","null","","na","test","","","","","","","","","5","","75","0.2","0.8","","","","0.8","","5",""
"460","","1762779","SARL_v6nw0j2uax","msl000059","freq","","","img/orange_2bandit_b2.png","70","","70","test","1","","","circle","square","133","128","1","6","0.9453125","","","","","","","","","",""
"null","","1763126","SARL_v6nw0j2uax","msl000059","freq_resp","","","img/orange_2bandit_b.png","70","img/orange_2bandit_b.png","70","test","","","","","","","","","6","","","","","","","","","","",""
"null","","1763281","SARL_v6nw0j2uax","msl000059","fixation","","","img/fixation.png","null","","","test","","","","","","","","","","","","","","","","","","","",""
"362","","1763649","SARL_v6nw0j2uax","msl000059","freq","","","img/orange_2bandit_b2.png","70","","70","test","1","","","circle","square","134","129","2","6","0.9457364341085271","","","","","","","","","",""
"null","","1764092","SARL_v6nw0j2uax","msl000059","freq_resp","","","img/orange_2bandit_b.png","70","img/orange_2bandit_b.png","70","test","","","","","","","","","6","","","","","","","","","","",""
"null","","1764248","SARL_v6nw0j2uax","msl000059","fixation","","","img/fixation.png","null","","","test","","","","","","","","","","","","","","","","","","","",""
"353","","1764605","SARL_v6nw0j2uax","msl000059","freq","","","img/orange_2bandit_b2.png","70","","70","test","1","","","circle","square","135","130","3","6","0.9461538461538461","","","","","","","","","",""
"null","","1765058","SARL_v6nw0j2uax","msl000059","freq_resp","","","img/orange_2bandit_b.png","70","img/orange_2bandit_b.png","70","test","","","","","","","","","6","","","","","","","","","","",""
"null","","1765214","SARL_v6nw0j2uax","msl000059","fixation","","","img/fixation.png","null","","","test","","","","","","","","","","","","","","","","","","","",""
"344","","1765564","SARL_v6nw0j2uax","msl000059","freq","","","img/orange_2bandit_b2.png","70","","70","test","1","","","circle","square","136","131","4","6","0.9465648854961832","","","","","","","","","",""
"null","","1766026","SARL_v6nw0j2uax","msl000059","freq_resp","","","img/orange_2bandit_b.png","70","img/orange_2bandit_b.png","70","test","","","","","","","","","6","","","","","","","","","","",""
"null","","1766181","SARL_v6nw0j2uax","msl000059","fixation","","","img/fixation.png","null","","","test","","","","","","","","","","","","","","","","","","","",""
"428","","1766615","SARL_v6nw0j2uax","msl000059","infreq","","","img/green_2bandit_b2.png","68","","68","test","1","","","circle","square","137","132","5","6","0.946969696969697","","","","","","","","","",""
"null","","1766992","SARL_v6nw0j2uax","msl000059","infreq_resp","","","img/green_2bandit_b.png","68","img/green_2bandit_b.png","68","test","","","","","","","","","6","","","","","","","","","","",""
"null","","1767148","SARL_v6nw0j2uax","msl000059","fixation","","","img/fixation.png","null","","","test","","","","","","","","","","","","","","","","","","","",""
"355","","1767508","SARL_v6nw0j2uax","msl000059","freq","","","img/orange_2bandit_b2.png","70","","70","test","1","","","circle","square","138","133","6","6","0.9473684210526315","","","","","","","","","",""
"null","","1767960","SARL_v6nw0j2uax","msl000059","freq_resp","","","img/orange_2bandit_b.png","70","img/orange_2bandit_b.png","70","test","","","","","","","","","6","","","","","","","","","","",""
"null","","1768115","SARL_v6nw0j2uax","msl000059","fixation","","","img/fixation.png","null","","","test","","","","","","","","","","","","","","","","","","","",""
"319","","1768439","SARL_v6nw0j2uax","msl000059","freq","","","img/orange_2bandit_b2.png","70","","70","test","1","","","circle","square","139","134","7","6","0.9477611940298507","","","","","","","","","",""
"null","","1768926","SARL_v6nw0j2uax","msl000059","freq_resp","","","img/orange_2bandit_b.png","70","img/orange_2bandit_b.png","70","test","","","","","","","","","6","","","","","","","","","","",""
"null","","1769082","SARL_v6nw0j2uax","msl000059","fixation","","","img/fixation.png","null","","","test","","","","","","","","","","","","","","","","","","","",""
"430","","1769517","SARL_v6nw0j2uax","msl000059","infreq","","","img/green_2bandit_b2.png","68","","68","test","1","","","circle","square","140","135","8","6","0.9481481481481482","","","","","","","","","",""
"null","","1769893","SARL_v6nw0j2uax","msl000059","infreq_resp","","","img/green_2bandit_b.png","68","img/green_2bandit_b.png","68","test","","","","","","","","","6","","","","","","","","","","",""
"null","","1770048","SARL_v6nw0j2uax","msl000059","fixation","","","img/fixation.png","null","","","test","","","","","","","","","","","","","","","","","","","",""
"341","","1770393","SARL_v6nw0j2uax","msl000059","freq","","","img/orange_2bandit_b2.png","70","","70","test","1","","","circle","square","141","136","9","6","0.9485294117647058","","","","","","","","","",""
"null","","1770858","SARL_v6nw0j2uax","msl000059","freq_resp","","","img/orange_2bandit_b.png","70","img/orange_2bandit_b.png","70","test","","","","","","","","","6","","","","","","","","","","",""
"null","","1771013","SARL_v6nw0j2uax","msl000059","fixation","","","img/fixation.png","null","","","test","","","","","","","","","","","","","","","","","","","",""
"278","","1771296","SARL_v6nw0j2uax","msl000059","freq","","","img/orange_2bandit_b2.png","70","","70","test","1","","","circle","square","142","137","10","6","0.948905109489051","","","","","","","","","",""
"null","","1771822","SARL_v6nw0j2uax","msl000059","freq_resp","","","img/orange_2bandit_b.png","70","img/orange_2bandit_b.png","70","test","","","","","","","","","6","","","","","","","","","","",""
"null","","1771978","SARL_v6nw0j2uax","msl000059","fixation","","","img/fixation.png","null","","","test","","","","","","","","","","","","","","","","","","","",""
"354","","1772336","SARL_v6nw0j2uax","msl000059","freq","","","img/orange_2bandit_b2.png","70","","70","test","1","","","circle","square","143","138","11","6","0.9492753623188406","","","","","","","","","",""
"null","","1772787","SARL_v6nw0j2uax","msl000059","freq_resp","","","img/orange_2bandit_b.png","70","img/orange_2bandit_b.png","70","test","","","","","","","","","6","","","","","","","","","","",""
"null","","1772944","SARL_v6nw0j2uax","msl000059","fixation","","","img/fixation.png","null","","","test","","","","","","","","","","","","","","","","","","","",""
"345","","1773293","SARL_v6nw0j2uax","msl000059","freq","","","img/orange_2bandit_b2.png","70","","70","test","1","","","circle","square","144","139","12","6","0.9496402877697842","","","","","","","","","",""
"null","","1773754","SARL_v6nw0j2uax","msl000059","freq_resp","","","img/orange_2bandit_b.png","70","img/orange_2bandit_b.png","70","test","","","","","","","","","6","","","","","","","","","","",""
"null","","1773910","SARL_v6nw0j2uax","msl000059","fixation","","","img/fixation.png","null","","","test","","","","","","","","","","","","","","","","","","","",""
"399","","1774315","SARL_v6nw0j2uax","msl000059","infreq","","","img/green_2bandit_b2.png","68","","68","test","1","","","circle","square","145","140","13","6","0.95","","","","","","","","","",""
"null","","1774722","SARL_v6nw0j2uax","msl000059","infreq_resp","","","img/green_2bandit_b.png","68","img/green_2bandit_b.png","68","test","","","","","","","","","6","","","","","","","","","","",""
"null","","1774877","SARL_v6nw0j2uax","msl000059","fixation","","","img/fixation.png","null","","","test","","","","","","","","","","","","","","","","","","","",""
"272","","1775155","SARL_v6nw0j2uax","msl000059","freq","","","img/orange_2bandit_b2.png","70","","70","test","1","","","circle","square","146","141","14","6","0.950354609929078","","","","","","","","","",""
"null","","1775690","SARL_v6nw0j2uax","msl000059","freq_resp","","","img/orange_2bandit_b.png","70","img/orange_2bandit_b.png","70","test","","","","","","","","","6","","","","","","","","","","",""
"null","","1775846","SARL_v6nw0j2uax","msl000059","fixation","","","img/fixation.png","null","","","test","","","","","","","","","","","","","","","","","","","",""
"242","","1776093","SARL_v6nw0j2uax","msl000059","freq","","","img/orange_2bandit_b2.png","70","","70","test","1","","","circle","square","147","142","15","6","0.9507042253521126","","","","","","","","","",""
"null","","1776656","SARL_v6nw0j2uax","msl000059","freq_resp","","","img/orange_2bandit_b.png","70","img/orange_2bandit_b.png","70","test","","","","","","","","","6","","","","","","","","","","",""
"null","","1776813","SARL_v6nw0j2uax","msl000059","fixation","","","img/fixation.png","null","","","test","","","","","","","","","","","","","","","","","","","",""
