"rt","responses","time_elapsed","subject","demoID","trialType","rlType","attType","stimulus","key_press","stim","corrresp","phase","corr","pracCounter","reward","bandOne","bandTwo","trialNum","attentionNum","attentionRunNum","blockNum","performance","bandChosen","circleVal","squareVal","coin","bandOneVal","bandTwoVal","pReward","shapeChosen","rlNum","badFlag"
"341206","{""Q0"":""msl000094""}","341233","SARL_v6ftpqxgnv","msl000094","","","","","","","","","","","","","","","","","","","","","","","","","","","",""
"20336","","361574","SARL_v6ftpqxgnv","msl000094","","","","","","","","","","","","","","","","","","","","","","","","","","","",""
"","","366254","SARL_v6ftpqxgnv","msl000094","fullscreen","fullscreen","fullscreen","","","","","","","","","","","","","","","","","","","","","","","","",""
"86979","","453240","SARL_v6ftpqxgnv","msl000094","","","","","","","","","","","","","","","","","","","","","","","","","","","",""
"null","","454048","SARL_v6ftpqxgnv","msl000094","freqPrac","","","img/green_2bandit_a2.png","null","img/green_2bandit_a2.png","70","prac","0","1","","","","","","","","","","","","","","","","","",""
"null","","455055","SARL_v6ftpqxgnv","msl000094","feedback","","","img/tooSlow.png","null","","na","prac","","","","","","","","","","","","","","","","","","","",""
"null","","455210","SARL_v6ftpqxgnv","msl000094","fixation","","","img/fixation.png","null","","","prac","","","","","","","","","","","","","","","","","","","",""
"614","","455828","SARL_v6ftpqxgnv","msl000094","infreqPrac","","","img/orange_2bandit_a2.png","68","img/orange_2bandit_a2.png","68","prac","1","1","","","","","","","","","","","","","","","","","",""
"614","","456019","SARL_v6ftpqxgnv","msl000094","infreqPrac_resp","","","img/orange_2bandit_a.png","68","img/orange_2bandit_a.png","68","prac","","","","","","","","","","","","","","","","","","","",""
"null","","456175","SARL_v6ftpqxgnv","msl000094","fixation","","","img/fixation.png","null","","","prac","","","","","","","","","","","","","","","","","","","",""
"458","","456639","SARL_v6ftpqxgnv","msl000094","freqPrac","","","img/green_2bandit_a2.png","70","img/green_2bandit_a2.png","70","prac","1","1","","","","","","","","","","","","","","","","","",""
"458","","456987","SARL_v6ftpqxgnv","msl000094","freqPrac_resp","","","img/green_2bandit_a.png","70","img/green_2bandit_a.png","70","prac","","","","","","","","","","","","","","","","","","","",""
"null","","457142","SARL_v6ftpqxgnv","msl000094","fixation","","","img/fixation.png","null","","","prac","","","","","","","","","","","","","","","","","","","",""
"19","","457167","SARL_v6ftpqxgnv","msl000094","infreqPrac","","","img/orange_2bandit_a2.png","70","img/orange_2bandit_a2.png","68","prac","0","2","","","","","","","","","","","","","","","","","",""
"19","","457954","SARL_v6ftpqxgnv","msl000094","infreqPrac_resp","","","img/orange_2bandit_a.png","70","img/orange_2bandit_a.png","68","prac","","","","","","","","","","","","","","","","","","","",""
"null","","458960","SARL_v6ftpqxgnv","msl000094","feedback","","","img/wrongKey.png","null","","na","prac","","","","","","","","","","","","","","","","","","","",""
"null","","459117","SARL_v6ftpqxgnv","msl000094","fixation","","","img/fixation.png","null","","","prac","","","","","","","","","","","","","","","","","","","",""
"506","","459627","SARL_v6ftpqxgnv","msl000094","infreqPrac","","","img/orange_2bandit_a2.png","68","img/orange_2bandit_a2.png","68","prac","1","2","","","","","","","","","","","","","","","","","",""
"506","","459928","SARL_v6ftpqxgnv","msl000094","infreqPrac_resp","","","img/orange_2bandit_a.png","68","img/orange_2bandit_a.png","68","prac","","","","","","","","","","","","","","","","","","","",""
"null","","460084","SARL_v6ftpqxgnv","msl000094","fixation","","","img/fixation.png","null","","","prac","","","","","","","","","","","","","","","","","","","",""
"636","","460726","SARL_v6ftpqxgnv","msl000094","infreqPrac","","","img/orange_2bandit_a2.png","68","img/orange_2bandit_a2.png","68","prac","1","2","","","","","","","","","","","","","","","","","",""
"636","","460896","SARL_v6ftpqxgnv","msl000094","infreqPrac_resp","","","img/orange_2bandit_a.png","68","img/orange_2bandit_a.png","68","prac","","","","","","","","","","","","","","","","","","","",""
"null","","461051","SARL_v6ftpqxgnv","msl000094","fixation","","","img/fixation.png","null","","","prac","","","","","","","","","","","","","","","","","","","",""
"643","","461699","SARL_v6ftpqxgnv","msl000094","freqPrac","","","img/green_2bandit_a2.png","70","img/green_2bandit_a2.png","70","prac","1","2","","","","","","","","","","","","","","","","","",""
"643","","461862","SARL_v6ftpqxgnv","msl000094","freqPrac_resp","","","img/green_2bandit_a.png","70","img/green_2bandit_a.png","70","prac","","","","","","","","","","","","","","","","","","","",""
"null","","462017","SARL_v6ftpqxgnv","msl000094","fixation","","","img/fixation.png","null","","","prac","","","","","","","","","","","","","","","","","","","",""
"621","","462643","SARL_v6ftpqxgnv","msl000094","infreqPrac","","","img/orange_2bandit_a2.png","68","img/orange_2bandit_a2.png","68","prac","1","2","","","","","","","","","","","","","","","","","",""
"621","","462829","SARL_v6ftpqxgnv","msl000094","infreqPrac_resp","","","img/orange_2bandit_a.png","68","img/orange_2bandit_a.png","68","prac","","","","","","","","","","","","","","","","","","","",""
"null","","462984","SARL_v6ftpqxgnv","msl000094","fixation","","","img/fixation.png","null","","","prac","","","","","","","","","","","","","","","","","","","",""
"576","","463566","SARL_v6ftpqxgnv","msl000094","freqPrac","","","img/green_2bandit_a2.png","70","img/green_2bandit_a2.png","70","prac","1","2","","","","","","","","","","","","","","","","","",""
"576","","463796","SARL_v6ftpqxgnv","msl000094","freqPrac_resp","","","img/green_2bandit_a.png","70","img/green_2bandit_a.png","70","prac","","","","","","","","","","","","","","","","","","","",""
"null","","463951","SARL_v6ftpqxgnv","msl000094","fixation","","","img/fixation.png","null","","","prac","","","","","","","","","","","","","","","","","","","",""
"562","","464518","SARL_v6ftpqxgnv","msl000094","freqPrac","","","img/green_2bandit_a2.png","70","img/green_2bandit_a2.png","70","prac","1","2","","","","","","","","","","","","","","","","","",""
"562","","464761","SARL_v6ftpqxgnv","msl000094","freqPrac_resp","","","img/green_2bandit_a.png","70","img/green_2bandit_a.png","70","prac","","","","","","","","","","","","","","","","","","","",""
"null","","464918","SARL_v6ftpqxgnv","msl000094","fixation","","","img/fixation.png","null","","","prac","","","","","","","","","","","","","","","","","","","",""
"28860","","493781","SARL_v6ftpqxgnv","msl000094","","","","","","","","prac","","","","","","","","","","","","","","","","","","","",""
"554","","494340","SARL_v6ftpqxgnv","msl000094","rlPractice","","","img/black_2bandit_a2.png","75","img/black_2bandit_a2.png","","prac","","","75","","","","","","","","","","","","","","","","",""
"null","","495096","SARL_v6ftpqxgnv","msl000094","feedback","","","img/yay_R_a.png","null","","na","prac","","","","","","","","","","","","","","","","","","","",""
"null","","495251","SARL_v6ftpqxgnv","msl000094","fixation","","","img/fixation.png","null","","","prac","","","","","","","","","","","","","","","","","","","",""
"732","","495989","SARL_v6ftpqxgnv","msl000094","rlPractice","","","img/black_2bandit_a2.png","75","img/black_2bandit_a2.png","","prac","","","75","","","","","","","","","","","","","","","","",""
"null","","496745","SARL_v6ftpqxgnv","msl000094","feedback","","","img/yay_R_a.png","null","","na","prac","","","","","","","","","","","","","","","","","","","",""
"null","","496901","SARL_v6ftpqxgnv","msl000094","fixation","","","img/fixation.png","null","","","prac","","","","","","","","","","","","","","","","","","","",""
"956","","497862","SARL_v6ftpqxgnv","msl000094","rlPractice","","","img/black_2bandit_a2.png","75","img/black_2bandit_a2.png","","prac","","","75","","","","","","","","","","","","","","","","",""
"null","","498618","SARL_v6ftpqxgnv","msl000094","feedback","","","img/yay_R_a.png","null","","na","prac","","","","","","","","","","","","","","","","","","","",""
"null","","498775","SARL_v6ftpqxgnv","msl000094","fixation","","","img/fixation.png","null","","","prac","","","","","","","","","","","","","","","","","","","",""
"779","","499557","SARL_v6ftpqxgnv","msl000094","rlPractice","","","img/black_2bandit_a2.png","75","img/black_2bandit_a2.png","","prac","","","75","","","","","","","","","","","","","","","","",""
"null","","500313","SARL_v6ftpqxgnv","msl000094","feedback","","","img/yay_R_a.png","null","","na","prac","","","","","","","","","","","","","","","","","","","",""
"null","","500467","SARL_v6ftpqxgnv","msl000094","fixation","","","img/fixation.png","null","","","prac","","","","","","","","","","","","","","","","","","","",""
"837","","501310","SARL_v6ftpqxgnv","msl000094","rlPractice","","","img/black_2bandit_a2.png","75","img/black_2bandit_a2.png","","prac","","","75","","","","","","","","","","","","","","","","",""
"null","","502066","SARL_v6ftpqxgnv","msl000094","feedback","","","img/yay_R_a.png","null","","na","prac","","","","","","","","","","","","","","","","","","","",""
"null","","502221","SARL_v6ftpqxgnv","msl000094","fixation","","","img/fixation.png","null","","","prac","","","","","","","","","","","","","","","","","","","",""
"934","","503160","SARL_v6ftpqxgnv","msl000094","rlPractice","","","img/black_2bandit_a2.png","75","img/black_2bandit_a2.png","","prac","","","75","","","","","","","","","","","","","","","","",""
"null","","503916","SARL_v6ftpqxgnv","msl000094","feedback","","","img/yay_R_a.png","null","","na","prac","","","","","","","","","","","","","","","","","","","",""
"null","","504071","SARL_v6ftpqxgnv","msl000094","fixation","","","img/fixation.png","null","","","prac","","","","","","","","","","","","","","","","","","","",""
"714","","504791","SARL_v6ftpqxgnv","msl000094","rlPractice","","","img/black_2bandit_a2.png","75","img/black_2bandit_a2.png","","prac","","","75","","","","","","","","","","","","","","","","",""
"null","","505546","SARL_v6ftpqxgnv","msl000094","feedback","","","img/yay_R_a.png","null","","na","prac","","","","","","","","","","","","","","","","","","","",""
"null","","505702","SARL_v6ftpqxgnv","msl000094","fixation","","","img/fixation.png","null","","","prac","","","","","","","","","","","","","","","","","","","",""
"12953","","518660","SARL_v6ftpqxgnv","msl000094","","","","","","","","prac","","","","","","","","","","","","","","","","","","","",""
"null","","519464","SARL_v6ftpqxgnv","msl000094","mixAttFreqPrac","","","img/green_2bandit_a2.png","null","img/green_2bandit_a2.png","70","prac","","","","","","","","","","","","","","","","","","","",""
"51","","519619","SARL_v6ftpqxgnv","msl000094","fixation","","","img/fixation.png","70","","","prac","","","","","","","","","","","","","","","","","","","",""
"785","","520409","SARL_v6ftpqxgnv","msl000094","mixAttInfreqPrac","","","img/orange_2bandit_a2.png","68","img/orange_2bandit_a2.png","68","prac","","","","","","","","","","","","","","","","","","","",""
"785","","520429","SARL_v6ftpqxgnv","msl000094","infreqPrac_resp","","","img/orange_2bandit_a.png","68","img/green_2bandit_a.png","68","prac","","","","","","","","","","","","","","","","","","","",""
"null","","520584","SARL_v6ftpqxgnv","msl000094","fixation","","","img/fixation.png","null","","","prac","","","","","","","","","","","","","","","","","","","",""
"629","","521218","SARL_v6ftpqxgnv","msl000094","mixAttInfreqPrac","","","img/orange_2bandit_a2.png","68","img/orange_2bandit_a2.png","68","prac","","","","","","","","","","","","","","","","","","","",""
"629","","521394","SARL_v6ftpqxgnv","msl000094","infreqPrac_resp","","","img/orange_2bandit_a.png","68","img/green_2bandit_a.png","68","prac","","","","","","","","","","","","","","","","","","","",""
"null","","521550","SARL_v6ftpqxgnv","msl000094","fixation","","","img/fixation.png","null","","","prac","","","","","","","","","","","","","","","","","","","",""
"475","","522031","SARL_v6ftpqxgnv","msl000094","mixAttInfreqPrac","","","img/orange_2bandit_a2.png","68","img/orange_2bandit_a2.png","68","prac","","","","","","","","","","","","","","","","","","","",""
"475","","522361","SARL_v6ftpqxgnv","msl000094","infreqPrac_resp","","","img/orange_2bandit_a.png","68","img/green_2bandit_a.png","68","prac","","","","","","","","","","","","","","","","","","","",""
"null","","522517","SARL_v6ftpqxgnv","msl000094","fixation","","","img/fixation.png","null","","","prac","","","","","","","","","","","","","","","","","","","",""
"462","","522983","SARL_v6ftpqxgnv","msl000094","mixAttFreqPrac","","","img/green_2bandit_a2.png","70","img/green_2bandit_a2.png","70","prac","","","","","","","","","","","","","","","","","","","",""
"462","","523327","SARL_v6ftpqxgnv","msl000094","freqPrac_resp","","","img/green_2bandit_a.png","70","img/green_2bandit_a.png","70","prac","","","","","","","","","","","","","","","","","","","",""
"null","","523482","SARL_v6ftpqxgnv","msl000094","fixation","","","img/fixation.png","null","","","prac","","","","","","","","","","","","","","","","","","","",""
"635","","524123","SARL_v6ftpqxgnv","msl000094","mixRLPractice","","","img/black_2bandit_a2.png","75","img/black_2bandit_a2.png","","prac","","","","","","","","","","","","","","","","","","","",""
"null","","524878","SARL_v6ftpqxgnv","msl000094","feedback","","","img/yay_R_a.png","null","","na","prac","","","","","","","","","","","","","","","","","","","",""
"null","","525684","SARL_v6ftpqxgnv","msl000094","mixAttFreqPrac","","","img/green_2bandit_a2.png","null","img/green_2bandit_a2.png","70","prac","","","","","","","","","","","","","","","","","","","",""
"null","","525839","SARL_v6ftpqxgnv","msl000094","fixation","","","img/fixation.png","null","","","prac","","","","","","","","","","","","","","","","","","","",""
"120","","525964","SARL_v6ftpqxgnv","msl000094","mixAttInfreqPrac","","","img/orange_2bandit_a2.png","70","img/orange_2bandit_a2.png","68","prac","","","","","","","","","","","","","","","","","","","",""
"120","","526649","SARL_v6ftpqxgnv","msl000094","infreqPrac_resp","","","img/orange_2bandit_a.png","70","img/green_2bandit_a.png","68","prac","","","","","","","","","","","","","","","","","","","",""
"119","","526805","SARL_v6ftpqxgnv","msl000094","fixation","","","img/fixation.png","68","","","prac","","","","","","","","","","","","","","","","","","","",""
"594","","527404","SARL_v6ftpqxgnv","msl000094","mixAttFreqPrac","","","img/green_2bandit_a2.png","70","img/green_2bandit_a2.png","70","prac","","","","","","","","","","","","","","","","","","","",""
"594","","527616","SARL_v6ftpqxgnv","msl000094","freqPrac_resp","","","img/green_2bandit_a.png","70","img/green_2bandit_a.png","70","prac","","","","","","","","","","","","","","","","","","","",""
"null","","527772","SARL_v6ftpqxgnv","msl000094","fixation","","","img/fixation.png","null","","","prac","","","","","","","","","","","","","","","","","","","",""
"462","","528239","SARL_v6ftpqxgnv","msl000094","mixAttFreqPrac","","","img/green_2bandit_a2.png","70","img/green_2bandit_a2.png","70","prac","","","","","","","","","","","","","","","","","","","",""
"462","","528582","SARL_v6ftpqxgnv","msl000094","freqPrac_resp","","","img/green_2bandit_a.png","70","img/green_2bandit_a.png","70","prac","","","","","","","","","","","","","","","","","","","",""
"null","","528739","SARL_v6ftpqxgnv","msl000094","fixation","","","img/fixation.png","null","","","prac","","","","","","","","","","","","","","","","","","","",""
"387","","529131","SARL_v6ftpqxgnv","msl000094","mixAttInfreqPrac","","","img/orange_2bandit_a2.png","68","img/orange_2bandit_a2.png","68","prac","","","","","","","","","","","","","","","","","","","",""
"387","","529549","SARL_v6ftpqxgnv","msl000094","infreqPrac_resp","","","img/orange_2bandit_a.png","68","img/green_2bandit_a.png","68","prac","","","","","","","","","","","","","","","","","","","",""
"null","","529705","SARL_v6ftpqxgnv","msl000094","fixation","","","img/fixation.png","null","","","prac","","","","","","","","","","","","","","","","","","","",""
"514","","530224","SARL_v6ftpqxgnv","msl000094","mixRLPractice","","","img/black_2bandit_a2.png","75","img/black_2bandit_a2.png","","prac","","","","","","","","","","","","","","","","","","","",""
"null","","530980","SARL_v6ftpqxgnv","msl000094","feedback","","","img/yay_R_a.png","null","","na","prac","","","","","","","","","","","","","","","","","","","",""
"40951","","571936","SARL_v6ftpqxgnv","msl000094","","","","","","","","prac","","","","","","","","","","","","","","","","","","","",""
"774","","572716","SARL_v6ftpqxgnv","msl000094","freq","","","img/green_2bandit_a2.png","70","","70","test","1","","","square","circle","1","1","1","1","1","","","","","","","","","",""
"null","","572748","SARL_v6ftpqxgnv","msl000094","freq_resp","","","img/green_2bandit_a.png","70","img/green_2bandit_a.png","70","test","","","","","","","","","1","","","","","","","","","","",""
"null","","572903","SARL_v6ftpqxgnv","msl000094","fixation","","","img/fixation.png","null","","","test","","","","","","","","","","","","","","","","","","","",""
"531","","573440","SARL_v6ftpqxgnv","msl000094","infreq","","","img/orange_2bandit_a2.png","68","","68","test","1","","","square","circle","2","2","2","1","1","","","","","","","","","",""
"null","","573715","SARL_v6ftpqxgnv","msl000094","infreq_resp","","","img/orange_2bandit_a.png","68","img/orange_2bandit_a.png","68","test","","","","","","","","","1","","","","","","","","","","",""
"null","","573869","SARL_v6ftpqxgnv","msl000094","fixation","","","img/fixation.png","null","","","test","","","","","","","","","","","","","","","","","","","",""
"495","","574369","SARL_v6ftpqxgnv","msl000094","freq","","","img/green_2bandit_a2.png","70","","70","test","1","","","square","circle","3","3","3","1","1","","","","","","","","","",""
"null","","574680","SARL_v6ftpqxgnv","msl000094","freq_resp","","","img/green_2bandit_a.png","70","img/green_2bandit_a.png","70","test","","","","","","","","","1","","","","","","","","","","",""
"null","","574836","SARL_v6ftpqxgnv","msl000094","fixation","","","img/fixation.png","null","","","test","","","","","","","","","","","","","","","","","","","",""
"429","","575270","SARL_v6ftpqxgnv","msl000094","freq","","","img/green_2bandit_a2.png","70","","70","test","1","","","square","circle","4","4","4","1","1","","","","","","","","","",""
"null","","575647","SARL_v6ftpqxgnv","msl000094","freq_resp","","","img/green_2bandit_a.png","70","img/green_2bandit_a.png","70","test","","","","","","","","","1","","","","","","","","","","",""
"null","","575803","SARL_v6ftpqxgnv","msl000094","fixation","","","img/fixation.png","null","","","test","","","","","","","","","","","","","","","","","","","",""
"322","","576130","SARL_v6ftpqxgnv","msl000094","freq","","","img/green_2bandit_a2.png","70","","70","test","1","","","square","circle","5","5","5","1","1","","","","","","","","","",""
"null","","576613","SARL_v6ftpqxgnv","msl000094","freq_resp","","","img/green_2bandit_a.png","70","img/green_2bandit_a.png","70","test","","","","","","","","","1","","","","","","","","","","",""
"null","","576769","SARL_v6ftpqxgnv","msl000094","fixation","","","img/fixation.png","null","","","test","","","","","","","","","","","","","","","","","","","",""
"403","","577179","SARL_v6ftpqxgnv","msl000094","infreq","","","img/orange_2bandit_a2.png","68","","68","test","1","","","square","circle","6","6","6","1","1","","","","","","","","","",""
"null","","577581","SARL_v6ftpqxgnv","msl000094","infreq_resp","","","img/orange_2bandit_a.png","68","img/orange_2bandit_a.png","68","test","","","","","","","","","1","","","","","","","","","","",""
"null","","577737","SARL_v6ftpqxgnv","msl000094","fixation","","","img/fixation.png","null","","","test","","","","","","","","","","","","","","","","","","","",""
"377","","578118","SARL_v6ftpqxgnv","msl000094","freq","","","img/green_2bandit_a2.png","70","","70","test","1","","","square","circle","7","7","7","1","1","","","","","","","","","",""
"null","","578545","SARL_v6ftpqxgnv","msl000094","freq_resp","","","img/green_2bandit_a.png","70","img/green_2bandit_a.png","70","test","","","","","","","","","1","","","","","","","","","","",""
"null","","578701","SARL_v6ftpqxgnv","msl000094","fixation","","","img/fixation.png","null","","","test","","","","","","","","","","","","","","","","","","","",""
"328","","579034","SARL_v6ftpqxgnv","msl000094","freq","","","img/green_2bandit_a2.png","70","","70","test","1","","","square","circle","8","8","8","1","1","","","","","","","","","",""
"null","","579513","SARL_v6ftpqxgnv","msl000094","freq_resp","","","img/green_2bandit_a.png","70","img/green_2bandit_a.png","70","test","","","","","","","","","1","","","","","","","","","","",""
"null","","579670","SARL_v6ftpqxgnv","msl000094","fixation","","","img/fixation.png","null","","","test","","","","","","","","","","","","","","","","","","","",""
"310","","579985","SARL_v6ftpqxgnv","msl000094","freq","","","img/green_2bandit_a2.png","70","","70","test","1","","","square","circle","9","9","9","1","1","","","","","","","","","",""
"null","","580481","SARL_v6ftpqxgnv","msl000094","freq_resp","","","img/green_2bandit_a.png","70","img/green_2bandit_a.png","70","test","","","","","","","","","1","","","","","","","","","","",""
"null","","580637","SARL_v6ftpqxgnv","msl000094","fixation","","","img/fixation.png","null","","","test","","","","","","","","","","","","","","","","","","","",""
"344","","580986","SARL_v6ftpqxgnv","msl000094","freq","","","img/green_2bandit_a2.png","70","","70","test","1","","","square","circle","10","10","10","1","1","","","","","","","","","",""
"null","","581449","SARL_v6ftpqxgnv","msl000094","freq_resp","","","img/green_2bandit_a.png","70","img/green_2bandit_a.png","70","test","","","","","","","","","1","","","","","","","","","","",""
"null","","581605","SARL_v6ftpqxgnv","msl000094","fixation","","","img/fixation.png","null","","","test","","","","","","","","","","","","","","","","","","","",""
"353","","581963","SARL_v6ftpqxgnv","msl000094","freq","","","img/green_2bandit_a2.png","70","","70","test","1","","","square","circle","11","11","11","1","1","","","","","","","","","",""
"null","","582416","SARL_v6ftpqxgnv","msl000094","freq_resp","","","img/green_2bandit_a.png","70","img/green_2bandit_a.png","70","test","","","","","","","","","1","","","","","","","","","","",""
"null","","582571","SARL_v6ftpqxgnv","msl000094","fixation","","","img/fixation.png","null","","","test","","","","","","","","","","","","","","","","","","","",""
"369","","582945","SARL_v6ftpqxgnv","msl000094","freq","","","img/green_2bandit_a2.png","70","","70","test","1","","","square","circle","12","12","12","1","1","","","","","","","","","",""
"null","","583380","SARL_v6ftpqxgnv","msl000094","freq_resp","","","img/green_2bandit_a.png","70","img/green_2bandit_a.png","70","test","","","","","","","","","1","","","","","","","","","","",""
"null","","583537","SARL_v6ftpqxgnv","msl000094","fixation","","","img/fixation.png","null","","","test","","","","","","","","","","","","","","","","","","","",""
"366","","583907","SARL_v6ftpqxgnv","msl000094","infreq","","","img/orange_2bandit_a2.png","68","","68","test","1","","","square","circle","13","13","13","1","1","","","","","","","","","",""
"null","","584347","SARL_v6ftpqxgnv","msl000094","infreq_resp","","","img/orange_2bandit_a.png","68","img/orange_2bandit_a.png","68","test","","","","","","","","","1","","","","","","","","","","",""
"null","","584502","SARL_v6ftpqxgnv","msl000094","fixation","","","img/fixation.png","null","","","test","","","","","","","","","","","","","","","","","","","",""
"426","","584933","SARL_v6ftpqxgnv","msl000094","freq","","","img/green_2bandit_a2.png","70","","70","test","1","","","square","circle","14","14","14","1","1","","","","","","","","","",""
"null","","585313","SARL_v6ftpqxgnv","msl000094","freq_resp","","","img/green_2bandit_a.png","70","img/green_2bandit_a.png","70","test","","","","","","","","","1","","","","","","","","","","",""
"null","","585469","SARL_v6ftpqxgnv","msl000094","fixation","","","img/fixation.png","null","","","test","","","","","","","","","","","","","","","","","","","",""
"319","","585794","SARL_v6ftpqxgnv","msl000094","freq","","","img/green_2bandit_a2.png","70","","70","test","1","","","square","circle","15","15","15","1","1","","","","","","","","","",""
"null","","586280","SARL_v6ftpqxgnv","msl000094","freq_resp","","","img/green_2bandit_a.png","70","img/green_2bandit_a.png","70","test","","","","","","","","","1","","","","","","","","","","",""
"null","","586436","SARL_v6ftpqxgnv","msl000094","fixation","","","img/fixation.png","null","","","test","","","","","","","","","","","","","","","","","","","",""
"328","","586769","SARL_v6ftpqxgnv","msl000094","freq","","","img/green_2bandit_a2.png","70","","70","test","1","","","square","circle","16","16","16","1","1","","","","","","","","","",""
"null","","587248","SARL_v6ftpqxgnv","msl000094","freq_resp","","","img/green_2bandit_a.png","70","img/green_2bandit_a.png","70","test","","","","","","","","","1","","","","","","","","","","",""
"null","","587402","SARL_v6ftpqxgnv","msl000094","fixation","","","img/fixation.png","null","","","test","","","","","","","","","","","","","","","","","","","",""
"310","","587716","SARL_v6ftpqxgnv","msl000094","freq","","","img/green_2bandit_a2.png","70","","70","test","1","","","square","circle","17","17","17","1","1","","","","","","","","","",""
"null","","588212","SARL_v6ftpqxgnv","msl000094","freq_resp","","","img/green_2bandit_a.png","70","img/green_2bandit_a.png","70","test","","","","","","","","","1","","","","","","","","","","",""
"null","","588367","SARL_v6ftpqxgnv","msl000094","fixation","","","img/fixation.png","null","","","test","","","","","","","","","","","","","","","","","","","",""
"298","","588672","SARL_v6ftpqxgnv","msl000094","freq","","","img/green_2bandit_a2.png","70","","70","test","1","","","square","circle","18","18","18","1","1","","","","","","","","","",""
"null","","589180","SARL_v6ftpqxgnv","msl000094","freq_resp","","","img/green_2bandit_a.png","70","img/green_2bandit_a.png","70","test","","","","","","","","","1","","","","","","","","","","",""
"null","","589336","SARL_v6ftpqxgnv","msl000094","fixation","","","img/fixation.png","null","","","test","","","","","","","","","","","","","","","","","","","",""
"297","","589637","SARL_v6ftpqxgnv","msl000094","freq","","","img/green_2bandit_a2.png","70","","70","test","1","","","square","circle","19","19","19","1","1","","","","","","","","","",""
"null","","590147","SARL_v6ftpqxgnv","msl000094","freq_resp","","","img/green_2bandit_a.png","70","img/green_2bandit_a.png","70","test","","","","","","","","","1","","","","","","","","","","",""
"null","","590303","SARL_v6ftpqxgnv","msl000094","fixation","","","img/fixation.png","null","","","test","","","","","","","","","","","","","","","","","","","",""
"307","","590615","SARL_v6ftpqxgnv","msl000094","freq","","","img/green_2bandit_a2.png","70","","70","test","1","","","square","circle","20","20","20","1","1","","","","","","","","","",""
"null","","591115","SARL_v6ftpqxgnv","msl000094","freq_resp","","","img/green_2bandit_a.png","70","img/green_2bandit_a.png","70","test","","","","","","","","","1","","","","","","","","","","",""
"null","","591269","SARL_v6ftpqxgnv","msl000094","fixation","","","img/fixation.png","null","","","test","","","","","","","","","","","","","","","","","","","",""
"319","","591593","SARL_v6ftpqxgnv","msl000094","freq","","","img/green_2bandit_a2.png","70","","70","test","1","","","square","circle","21","21","21","1","1","","","","","","","","","",""
"null","","592080","SARL_v6ftpqxgnv","msl000094","freq_resp","","","img/green_2bandit_a.png","70","img/green_2bandit_a.png","70","test","","","","","","","","","1","","","","","","","","","","",""
"null","","592236","SARL_v6ftpqxgnv","msl000094","fixation","","","img/fixation.png","null","","","test","","","","","","","","","","","","","","","","","","","",""
"330","","592569","SARL_v6ftpqxgnv","msl000094","freq","","","img/green_2bandit_a2.png","70","","70","test","1","","","square","circle","22","22","22","1","1","","","","","","","","","",""
"null","","593047","SARL_v6ftpqxgnv","msl000094","freq_resp","","","img/green_2bandit_a.png","70","img/green_2bandit_a.png","70","test","","","","","","","","","1","","","","","","","","","","",""
"null","","593203","SARL_v6ftpqxgnv","msl000094","fixation","","","img/fixation.png","null","","","test","","","","","","","","","","","","","","","","","","","",""
"484","","593692","SARL_v6ftpqxgnv","msl000094","rl","","","img/black_2bandit_a2.png","75","","0","test","","","0","square","circle","23","","0","1","","75","0.2","0.8","0.9937257965657624","0.8","0.2","0.2","circle","1","0"
"null","","594449","SARL_v6ftpqxgnv","msl000094","feedback","","","img/boo_R_a.png","null","","na","test","","","","","","","","","1","","75","0.2","0.8","","","","0.2","","1",""
"540","","594994","SARL_v6ftpqxgnv","msl000094","freq","","","img/green_2bandit_a2.png","70","","70","test","1","","","square","circle","24","23","1","2","1","","","","","","","","","",""
"null","","595261","SARL_v6ftpqxgnv","msl000094","freq_resp","","","img/green_2bandit_a.png","70","img/green_2bandit_a.png","70","test","","","","","","","","","2","","","","","","","","","","",""
"null","","595416","SARL_v6ftpqxgnv","msl000094","fixation","","","img/fixation.png","null","","","test","","","","","","","","","","","","","","","","","","","",""
"522","","595943","SARL_v6ftpqxgnv","msl000094","freq","","","img/green_2bandit_a2.png","70","","70","test","1","","","square","circle","25","24","2","2","1","","","","","","","","","",""
"null","","596227","SARL_v6ftpqxgnv","msl000094","freq_resp","","","img/green_2bandit_a.png","70","img/green_2bandit_a.png","70","test","","","","","","","","","2","","","","","","","","","","",""
"null","","596384","SARL_v6ftpqxgnv","msl000094","fixation","","","img/fixation.png","null","","","test","","","","","","","","","","","","","","","","","","","",""
"507","","596895","SARL_v6ftpqxgnv","msl000094","freq","","","img/green_2bandit_a2.png","70","","70","test","1","","","square","circle","26","25","3","2","1","","","","","","","","","",""
"null","","597194","SARL_v6ftpqxgnv","msl000094","freq_resp","","","img/green_2bandit_a.png","70","img/green_2bandit_a.png","70","test","","","","","","","","","2","","","","","","","","","","",""
"null","","597349","SARL_v6ftpqxgnv","msl000094","fixation","","","img/fixation.png","null","","","test","","","","","","","","","","","","","","","","","","","",""
"421","","597775","SARL_v6ftpqxgnv","msl000094","freq","","","img/green_2bandit_a2.png","70","","70","test","1","","","square","circle","27","26","4","2","1","","","","","","","","","",""
"null","","598160","SARL_v6ftpqxgnv","msl000094","freq_resp","","","img/green_2bandit_a.png","70","img/green_2bandit_a.png","70","test","","","","","","","","","2","","","","","","","","","","",""
"null","","598315","SARL_v6ftpqxgnv","msl000094","fixation","","","img/fixation.png","null","","","test","","","","","","","","","","","","","","","","","","","",""
"509","","598829","SARL_v6ftpqxgnv","msl000094","infreq","","","img/orange_2bandit_a2.png","68","","68","test","1","","","square","circle","28","27","5","2","1","","","","","","","","","",""
"null","","599126","SARL_v6ftpqxgnv","msl000094","infreq_resp","","","img/orange_2bandit_a.png","68","img/orange_2bandit_a.png","68","test","","","","","","","","","2","","","","","","","","","","",""
"null","","599282","SARL_v6ftpqxgnv","msl000094","fixation","","","img/fixation.png","null","","","test","","","","","","","","","","","","","","","","","","","",""
"483","","599769","SARL_v6ftpqxgnv","msl000094","freq","","","img/green_2bandit_a2.png","68","","70","test","0","","","square","circle","29","28","6","2","0.9642857142857143","","","","","","","","","",""
"null","","600092","SARL_v6ftpqxgnv","msl000094","freq_resp","","","img/green_2bandit_a.png","68","img/green_2bandit_a.png","70","test","","","","","","","","","2","","","","","","","","","","",""
"null","","600248","SARL_v6ftpqxgnv","msl000094","fixation","","","img/fixation.png","null","","","test","","","","","","","","","","","","","","","","","","","",""
"481","","600734","SARL_v6ftpqxgnv","msl000094","freq","","","img/green_2bandit_a2.png","70","","70","test","1","","","square","circle","30","29","7","2","0.9655172413793104","","","","","","","","","",""
"null","","601058","SARL_v6ftpqxgnv","msl000094","freq_resp","","","img/green_2bandit_a.png","70","img/green_2bandit_a.png","70","test","","","","","","","","","2","","","","","","","","","","",""
"null","","601213","SARL_v6ftpqxgnv","msl000094","fixation","","","img/fixation.png","null","","","test","","","","","","","","","","","","","","","","","","","",""
"450","","601667","SARL_v6ftpqxgnv","msl000094","freq","","","img/green_2bandit_a2.png","70","","70","test","1","","","square","circle","31","30","8","2","0.9666666666666667","","","","","","","","","",""
"null","","602025","SARL_v6ftpqxgnv","msl000094","freq_resp","","","img/green_2bandit_a.png","70","img/green_2bandit_a.png","70","test","","","","","","","","","2","","","","","","","","","","",""
"null","","602179","SARL_v6ftpqxgnv","msl000094","fixation","","","img/fixation.png","null","","","test","","","","","","","","","","","","","","","","","","","",""
"375","","602561","SARL_v6ftpqxgnv","msl000094","freq","","","img/green_2bandit_a2.png","70","","70","test","1","","","square","circle","32","31","9","2","0.967741935483871","","","","","","","","","",""
"null","","602992","SARL_v6ftpqxgnv","msl000094","freq_resp","","","img/green_2bandit_a.png","70","img/green_2bandit_a.png","70","test","","","","","","","","","2","","","","","","","","","","",""
"null","","603148","SARL_v6ftpqxgnv","msl000094","fixation","","","img/fixation.png","null","","","test","","","","","","","","","","","","","","","","","","","",""
"346","","603499","SARL_v6ftpqxgnv","msl000094","freq","","","img/green_2bandit_a2.png","70","","70","test","1","","","square","circle","33","32","10","2","0.96875","","","","","","","","","",""
"null","","603959","SARL_v6ftpqxgnv","msl000094","freq_resp","","","img/green_2bandit_a.png","70","img/green_2bandit_a.png","70","test","","","","","","","","","2","","","","","","","","","","",""
"null","","604114","SARL_v6ftpqxgnv","msl000094","fixation","","","img/fixation.png","null","","","test","","","","","","","","","","","","","","","","","","","",""
"335","","604455","SARL_v6ftpqxgnv","msl000094","freq","","","img/green_2bandit_a2.png","70","","70","test","1","","","square","circle","34","33","11","2","0.9696969696969697","","","","","","","","","",""
"null","","604926","SARL_v6ftpqxgnv","msl000094","freq_resp","","","img/green_2bandit_a.png","70","img/green_2bandit_a.png","70","test","","","","","","","","","2","","","","","","","","","","",""
"null","","605082","SARL_v6ftpqxgnv","msl000094","fixation","","","img/fixation.png","null","","","test","","","","","","","","","","","","","","","","","","","",""
"294","","605381","SARL_v6ftpqxgnv","msl000094","freq","","","img/green_2bandit_a2.png","70","","70","test","1","","","square","circle","35","34","12","2","0.9705882352941176","","","","","","","","","",""
"null","","605893","SARL_v6ftpqxgnv","msl000094","freq_resp","","","img/green_2bandit_a.png","70","img/green_2bandit_a.png","70","test","","","","","","","","","2","","","","","","","","","","",""
"null","","606049","SARL_v6ftpqxgnv","msl000094","fixation","","","img/fixation.png","null","","","test","","","","","","","","","","","","","","","","","","","",""
"303","","606356","SARL_v6ftpqxgnv","msl000094","freq","","","img/green_2bandit_a2.png","70","","70","test","1","","","square","circle","36","35","13","2","0.9714285714285714","","","","","","","","","",""
"null","","606858","SARL_v6ftpqxgnv","msl000094","freq_resp","","","img/green_2bandit_a.png","70","img/green_2bandit_a.png","70","test","","","","","","","","","2","","","","","","","","","","",""
"null","","607012","SARL_v6ftpqxgnv","msl000094","fixation","","","img/fixation.png","null","","","test","","","","","","","","","","","","","","","","","","","",""
"286","","607304","SARL_v6ftpqxgnv","msl000094","freq","","","img/green_2bandit_a2.png","70","","70","test","1","","","square","circle","37","36","14","2","0.9722222222222222","","","","","","","","","",""
"null","","607823","SARL_v6ftpqxgnv","msl000094","freq_resp","","","img/green_2bandit_a.png","70","img/green_2bandit_a.png","70","test","","","","","","","","","2","","","","","","","","","","",""
"null","","607978","SARL_v6ftpqxgnv","msl000094","fixation","","","img/fixation.png","null","","","test","","","","","","","","","","","","","","","","","","","",""
"282","","608267","SARL_v6ftpqxgnv","msl000094","freq","","","img/green_2bandit_a2.png","70","","70","test","1","","","square","circle","38","37","15","2","0.972972972972973","","","","","","","","","",""
"null","","608791","SARL_v6ftpqxgnv","msl000094","freq_resp","","","img/green_2bandit_a.png","70","img/green_2bandit_a.png","70","test","","","","","","","","","2","","","","","","","","","","",""
"null","","608947","SARL_v6ftpqxgnv","msl000094","fixation","","","img/fixation.png","null","","","test","","","","","","","","","","","","","","","","","","","",""
"329","","609280","SARL_v6ftpqxgnv","msl000094","freq","","","img/green_2bandit_a2.png","70","","70","test","1","","","square","circle","39","38","16","2","0.9736842105263158","","","","","","","","","",""
"null","","609757","SARL_v6ftpqxgnv","msl000094","freq_resp","","","img/green_2bandit_a.png","70","img/green_2bandit_a.png","70","test","","","","","","","","","2","","","","","","","","","","",""
"null","","609912","SARL_v6ftpqxgnv","msl000094","fixation","","","img/fixation.png","null","","","test","","","","","","","","","","","","","","","","","","","",""
"332","","610250","SARL_v6ftpqxgnv","msl000094","freq","","","img/green_2bandit_a2.png","70","","70","test","1","","","square","circle","40","39","17","2","0.9743589743589743","","","","","","","","","",""
"null","","610724","SARL_v6ftpqxgnv","msl000094","freq_resp","","","img/green_2bandit_a.png","70","img/green_2bandit_a.png","70","test","","","","","","","","","2","","","","","","","","","","",""
"null","","610880","SARL_v6ftpqxgnv","msl000094","fixation","","","img/fixation.png","null","","","test","","","","","","","","","","","","","","","","","","","",""
"303","","611187","SARL_v6ftpqxgnv","msl000094","freq","","","img/green_2bandit_a2.png","70","","70","test","1","","","square","circle","41","40","18","2","0.975","","","","","","","","","",""
"null","","611689","SARL_v6ftpqxgnv","msl000094","freq_resp","","","img/green_2bandit_a.png","70","img/green_2bandit_a.png","70","test","","","","","","","","","2","","","","","","","","","","",""
"null","","611845","SARL_v6ftpqxgnv","msl000094","fixation","","","img/fixation.png","null","","","test","","","","","","","","","","","","","","","","","","","",""
"340","","612189","SARL_v6ftpqxgnv","msl000094","freq","","","img/green_2bandit_a2.png","70","","70","test","1","","","square","circle","42","41","19","2","0.975609756097561","","","","","","","","","",""
"null","","612654","SARL_v6ftpqxgnv","msl000094","freq_resp","","","img/green_2bandit_a.png","70","img/green_2bandit_a.png","70","test","","","","","","","","","2","","","","","","","","","","",""
"null","","612810","SARL_v6ftpqxgnv","msl000094","fixation","","","img/fixation.png","null","","","test","","","","","","","","","","","","","","","","","","","",""
"437","","613253","SARL_v6ftpqxgnv","msl000094","infreq","","","img/orange_2bandit_a2.png","68","","68","test","1","","","square","circle","43","42","20","2","0.9761904761904762","","","","","","","","","",""
"null","","613621","SARL_v6ftpqxgnv","msl000094","infreq_resp","","","img/orange_2bandit_a.png","68","img/orange_2bandit_a.png","68","test","","","","","","","","","2","","","","","","","","","","",""
"null","","613777","SARL_v6ftpqxgnv","msl000094","fixation","","","img/fixation.png","null","","","test","","","","","","","","","","","","","","","","","","","",""
"495","","614279","SARL_v6ftpqxgnv","msl000094","freq","","","img/green_2bandit_a2.png","70","","70","test","1","","","square","circle","44","43","21","2","0.9767441860465116","","","","","","","","","",""
"null","","614590","SARL_v6ftpqxgnv","msl000094","freq_resp","","","img/green_2bandit_a.png","70","img/green_2bandit_a.png","70","test","","","","","","","","","2","","","","","","","","","","",""
"null","","614746","SARL_v6ftpqxgnv","msl000094","fixation","","","img/fixation.png","null","","","test","","","","","","","","","","","","","","","","","","","",""
"404","","615153","SARL_v6ftpqxgnv","msl000094","freq","","","img/green_2bandit_a2.png","70","","70","test","1","","","square","circle","45","44","22","2","0.9772727272727273","","","","","","","","","",""
"null","","615555","SARL_v6ftpqxgnv","msl000094","freq_resp","","","img/green_2bandit_a.png","70","img/green_2bandit_a.png","70","test","","","","","","","","","2","","","","","","","","","","",""
"null","","615709","SARL_v6ftpqxgnv","msl000094","fixation","","","img/fixation.png","null","","","test","","","","","","","","","","","","","","","","","","","",""
"502","","616217","SARL_v6ftpqxgnv","msl000094","rl","","","img/black_2bandit_a2.png","74","","0","test","","","0","square","circle","46","","0","2","","74","0.2","0.8","0.8551834644461104","0.8","0.2","0.8","square","2","0"
"null","","616974","SARL_v6ftpqxgnv","msl000094","feedback","","","img/boo_L_a.png","null","","na","test","","","","","","","","","2","","74","0.2","0.8","","","","0.8","","2",""
"548","","617527","SARL_v6ftpqxgnv","msl000094","freq","","","img/green_2bandit_a2.png","70","","70","test","1","","","square","circle","47","45","1","3","0.9777777777777777","","","","","","","","","",""
"null","","617784","SARL_v6ftpqxgnv","msl000094","freq_resp","","","img/green_2bandit_a.png","70","img/green_2bandit_a.png","70","test","","","","","","","","","3","","","","","","","","","","",""
"null","","617939","SARL_v6ftpqxgnv","msl000094","fixation","","","img/fixation.png","null","","","test","","","","","","","","","","","","","","","","","","","",""
"710","","618656","SARL_v6ftpqxgnv","msl000094","freq","","","img/green_2bandit_a2.png","70","","70","test","1","","","square","circle","48","46","2","3","0.9782608695652174","","","","","","","","","",""
"null","","618752","SARL_v6ftpqxgnv","msl000094","freq_resp","","","img/green_2bandit_a.png","70","img/green_2bandit_a.png","70","test","","","","","","","","","3","","","","","","","","","","",""
"null","","618908","SARL_v6ftpqxgnv","msl000094","fixation","","","img/fixation.png","null","","","test","","","","","","","","","","","","","","","","","","","",""
"589","","619503","SARL_v6ftpqxgnv","msl000094","freq","","","img/green_2bandit_a2.png","70","","70","test","1","","","square","circle","49","47","3","3","0.9787234042553191","","","","","","","","","",""
"null","","619719","SARL_v6ftpqxgnv","msl000094","freq_resp","","","img/green_2bandit_a.png","70","img/green_2bandit_a.png","70","test","","","","","","","","","3","","","","","","","","","","",""
"null","","619875","SARL_v6ftpqxgnv","msl000094","fixation","","","img/fixation.png","null","","","test","","","","","","","","","","","","","","","","","","","",""
"470","","620351","SARL_v6ftpqxgnv","msl000094","freq","","","img/green_2bandit_a2.png","70","","70","test","1","","","square","circle","50","48","4","3","0.9791666666666666","","","","","","","","","",""
"null","","620686","SARL_v6ftpqxgnv","msl000094","freq_resp","","","img/green_2bandit_a.png","70","img/green_2bandit_a.png","70","test","","","","","","","","","3","","","","","","","","","","",""
"null","","620842","SARL_v6ftpqxgnv","msl000094","fixation","","","img/fixation.png","null","","","test","","","","","","","","","","","","","","","","","","","",""
"409","","621255","SARL_v6ftpqxgnv","msl000094","freq","","","img/green_2bandit_a2.png","70","","70","test","1","","","square","circle","51","49","5","3","0.9795918367346939","","","","","","","","","",""
"null","","621652","SARL_v6ftpqxgnv","msl000094","freq_resp","","","img/green_2bandit_a.png","70","img/green_2bandit_a.png","70","test","","","","","","","","","3","","","","","","","","","","",""
"null","","621808","SARL_v6ftpqxgnv","msl000094","fixation","","","img/fixation.png","null","","","test","","","","","","","","","","","","","","","","","","","",""
"425","","622239","SARL_v6ftpqxgnv","msl000094","infreq","","","img/orange_2bandit_a2.png","68","","68","test","1","","","square","circle","52","50","6","3","0.98","","","","","","","","","",""
"null","","622619","SARL_v6ftpqxgnv","msl000094","infreq_resp","","","img/orange_2bandit_a.png","68","img/orange_2bandit_a.png","68","test","","","","","","","","","3","","","","","","","","","","",""
"null","","622776","SARL_v6ftpqxgnv","msl000094","fixation","","","img/fixation.png","null","","","test","","","","","","","","","","","","","","","","","","","",""
"370","","623152","SARL_v6ftpqxgnv","msl000094","freq","","","img/green_2bandit_a2.png","70","","70","test","1","","","square","circle","53","51","7","3","0.9803921568627451","","","","","","","","","",""
"null","","623587","SARL_v6ftpqxgnv","msl000094","freq_resp","","","img/green_2bandit_a.png","70","img/green_2bandit_a.png","70","test","","","","","","","","","3","","","","","","","","","","",""
"null","","623743","SARL_v6ftpqxgnv","msl000094","fixation","","","img/fixation.png","null","","","test","","","","","","","","","","","","","","","","","","","",""
"363","","624111","SARL_v6ftpqxgnv","msl000094","freq","","","img/green_2bandit_a2.png","70","","70","test","1","","","square","circle","54","52","8","3","0.9807692307692307","","","","","","","","","",""
"null","","624554","SARL_v6ftpqxgnv","msl000094","freq_resp","","","img/green_2bandit_a.png","70","img/green_2bandit_a.png","70","test","","","","","","","","","3","","","","","","","","","","",""
"null","","624710","SARL_v6ftpqxgnv","msl000094","fixation","","","img/fixation.png","null","","","test","","","","","","","","","","","","","","","","","","","",""
"355","","625069","SARL_v6ftpqxgnv","msl000094","freq","","","img/green_2bandit_a2.png","70","","70","test","1","","","square","circle","55","53","9","3","0.9811320754716981","","","","","","","","","",""
"null","","625519","SARL_v6ftpqxgnv","msl000094","freq_resp","","","img/green_2bandit_a.png","70","img/green_2bandit_a.png","70","test","","","","","","","","","3","","","","","","","","","","",""
"null","","625675","SARL_v6ftpqxgnv","msl000094","fixation","","","img/fixation.png","null","","","test","","","","","","","","","","","","","","","","","","","",""
"298","","625978","SARL_v6ftpqxgnv","msl000094","freq","","","img/green_2bandit_a2.png","70","","70","test","1","","","square","circle","56","54","10","3","0.9814814814814815","","","","","","","","","",""
"null","","626486","SARL_v6ftpqxgnv","msl000094","freq_resp","","","img/green_2bandit_a.png","70","img/green_2bandit_a.png","70","test","","","","","","","","","3","","","","","","","","","","",""
"null","","626641","SARL_v6ftpqxgnv","msl000094","fixation","","","img/fixation.png","null","","","test","","","","","","","","","","","","","","","","","","","",""
"309","","626954","SARL_v6ftpqxgnv","msl000094","freq","","","img/green_2bandit_a2.png","70","","70","test","1","","","square","circle","57","55","11","3","0.9818181818181818","","","","","","","","","",""
"null","","627451","SARL_v6ftpqxgnv","msl000094","freq_resp","","","img/green_2bandit_a.png","70","img/green_2bandit_a.png","70","test","","","","","","","","","3","","","","","","","","","","",""
"null","","627606","SARL_v6ftpqxgnv","msl000094","fixation","","","img/fixation.png","null","","","test","","","","","","","","","","","","","","","","","","","",""
"538","","628149","SARL_v6ftpqxgnv","msl000094","infreq","","","img/orange_2bandit_a2.png","68","","68","test","1","","","square","circle","58","56","12","3","0.9821428571428571","","","","","","","","","",""
"null","","628418","SARL_v6ftpqxgnv","msl000094","infreq_resp","","","img/orange_2bandit_a.png","68","img/orange_2bandit_a.png","68","test","","","","","","","","","3","","","","","","","","","","",""
"null","","628574","SARL_v6ftpqxgnv","msl000094","fixation","","","img/fixation.png","null","","","test","","","","","","","","","","","","","","","","","","","",""
"379","","628958","SARL_v6ftpqxgnv","msl000094","freq","","","img/green_2bandit_a2.png","70","","70","test","1","","","square","circle","59","57","13","3","0.9824561403508771","","","","","","","","","",""
"null","","629385","SARL_v6ftpqxgnv","msl000094","freq_resp","","","img/green_2bandit_a.png","70","img/green_2bandit_a.png","70","test","","","","","","","","","3","","","","","","","","","","",""
"null","","629541","SARL_v6ftpqxgnv","msl000094","fixation","","","img/fixation.png","null","","","test","","","","","","","","","","","","","","","","","","","",""
"380","","629926","SARL_v6ftpqxgnv","msl000094","freq","","","img/green_2bandit_a2.png","70","","70","test","1","","","square","circle","60","58","14","3","0.9827586206896551","","","","","","","","","",""
"null","","630352","SARL_v6ftpqxgnv","msl000094","freq_resp","","","img/green_2bandit_a.png","70","img/green_2bandit_a.png","70","test","","","","","","","","","3","","","","","","","","","","",""
"null","","630508","SARL_v6ftpqxgnv","msl000094","fixation","","","img/fixation.png","null","","","test","","","","","","","","","","","","","","","","","","","",""
"349","","630861","SARL_v6ftpqxgnv","msl000094","freq","","","img/green_2bandit_a2.png","70","","70","test","1","","","square","circle","61","59","15","3","0.9830508474576272","","","","","","","","","",""
"null","","631317","SARL_v6ftpqxgnv","msl000094","freq_resp","","","img/green_2bandit_a.png","70","img/green_2bandit_a.png","70","test","","","","","","","","","3","","","","","","","","","","",""
"null","","631473","SARL_v6ftpqxgnv","msl000094","fixation","","","img/fixation.png","null","","","test","","","","","","","","","","","","","","","","","","","",""
"341","","631819","SARL_v6ftpqxgnv","msl000094","freq","","","img/green_2bandit_a2.png","70","","70","test","1","","","square","circle","62","60","16","3","0.9833333333333333","","","","","","","","","",""
"null","","632284","SARL_v6ftpqxgnv","msl000094","freq_resp","","","img/green_2bandit_a.png","70","img/green_2bandit_a.png","70","test","","","","","","","","","3","","","","","","","","","","",""
"null","","632440","SARL_v6ftpqxgnv","msl000094","fixation","","","img/fixation.png","null","","","test","","","","","","","","","","","","","","","","","","","",""
"303","","632747","SARL_v6ftpqxgnv","msl000094","freq","","","img/green_2bandit_a2.png","70","","70","test","1","","","square","circle","63","61","17","3","0.9836065573770492","","","","","","","","","",""
"null","","633250","SARL_v6ftpqxgnv","msl000094","freq_resp","","","img/green_2bandit_a.png","70","img/green_2bandit_a.png","70","test","","","","","","","","","3","","","","","","","","","","",""
"null","","633405","SARL_v6ftpqxgnv","msl000094","fixation","","","img/fixation.png","null","","","test","","","","","","","","","","","","","","","","","","","",""
"335","","633745","SARL_v6ftpqxgnv","msl000094","freq","","","img/green_2bandit_a2.png","70","","70","test","1","","","square","circle","64","62","18","3","0.9838709677419355","","","","","","","","","",""
"null","","634216","SARL_v6ftpqxgnv","msl000094","freq_resp","","","img/green_2bandit_a.png","70","img/green_2bandit_a.png","70","test","","","","","","","","","3","","","","","","","","","","",""
"null","","634371","SARL_v6ftpqxgnv","msl000094","fixation","","","img/fixation.png","null","","","test","","","","","","","","","","","","","","","","","","","",""
"328","","634704","SARL_v6ftpqxgnv","msl000094","freq","","","img/green_2bandit_a2.png","70","","70","test","1","","","square","circle","65","63","19","3","0.9841269841269841","","","","","","","","","",""
"null","","635182","SARL_v6ftpqxgnv","msl000094","freq_resp","","","img/green_2bandit_a.png","70","img/green_2bandit_a.png","70","test","","","","","","","","","3","","","","","","","","","","",""
"null","","635337","SARL_v6ftpqxgnv","msl000094","fixation","","","img/fixation.png","null","","","test","","","","","","","","","","","","","","","","","","","",""
"362","","635705","SARL_v6ftpqxgnv","msl000094","freq","","","img/green_2bandit_a2.png","70","","70","test","1","","","square","circle","66","64","20","3","0.984375","","","","","","","","","",""
"null","","636149","SARL_v6ftpqxgnv","msl000094","freq_resp","","","img/green_2bandit_a.png","70","img/green_2bandit_a.png","70","test","","","","","","","","","3","","","","","","","","","","",""
"null","","636305","SARL_v6ftpqxgnv","msl000094","fixation","","","img/fixation.png","null","","","test","","","","","","","","","","","","","","","","","","","",""
"332","","636640","SARL_v6ftpqxgnv","msl000094","freq","","","img/green_2bandit_a2.png","70","","70","test","1","","","square","circle","67","65","21","3","0.9846153846153847","","","","","","","","","",""
"null","","637115","SARL_v6ftpqxgnv","msl000094","freq_resp","","","img/green_2bandit_a.png","70","img/green_2bandit_a.png","70","test","","","","","","","","","3","","","","","","","","","","",""
"null","","637269","SARL_v6ftpqxgnv","msl000094","fixation","","","img/fixation.png","null","","","test","","","","","","","","","","","","","","","","","","","",""
"586","","637861","SARL_v6ftpqxgnv","msl000094","infreq","","","img/orange_2bandit_a2.png","68","","68","test","1","","","square","circle","68","66","22","3","0.9848484848484849","","","","","","","","","",""
"null","","638081","SARL_v6ftpqxgnv","msl000094","infreq_resp","","","img/orange_2bandit_a.png","68","img/orange_2bandit_a.png","68","test","","","","","","","","","3","","","","","","","","","","",""
"null","","638237","SARL_v6ftpqxgnv","msl000094","fixation","","","img/fixation.png","null","","","test","","","","","","","","","","","","","","","","","","","",""
"448","","638690","SARL_v6ftpqxgnv","msl000094","freq","","","img/green_2bandit_a2.png","70","","70","test","1","","","square","circle","69","67","23","3","0.9850746268656716","","","","","","","","","",""
"null","","639046","SARL_v6ftpqxgnv","msl000094","freq_resp","","","img/green_2bandit_a.png","70","img/green_2bandit_a.png","70","test","","","","","","","","","3","","","","","","","","","","",""
"null","","639202","SARL_v6ftpqxgnv","msl000094","fixation","","","img/fixation.png","null","","","test","","","","","","","","","","","","","","","","","","","",""
"359","","639566","SARL_v6ftpqxgnv","msl000094","freq","","","img/green_2bandit_a2.png","70","","70","test","1","","","square","circle","70","68","24","3","0.9852941176470589","","","","","","","","","",""
"null","","640013","SARL_v6ftpqxgnv","msl000094","freq_resp","","","img/green_2bandit_a.png","70","img/green_2bandit_a.png","70","test","","","","","","","","","3","","","","","","","","","","",""
"null","","640168","SARL_v6ftpqxgnv","msl000094","fixation","","","img/fixation.png","null","","","test","","","","","","","","","","","","","","","","","","","",""
"312","","640486","SARL_v6ftpqxgnv","msl000094","freq","","","img/green_2bandit_a2.png","70","","70","test","1","","","square","circle","71","69","25","3","0.9855072463768116","","","","","","","","","",""
"null","","640978","SARL_v6ftpqxgnv","msl000094","freq_resp","","","img/green_2bandit_a.png","70","img/green_2bandit_a.png","70","test","","","","","","","","","3","","","","","","","","","","",""
"null","","641134","SARL_v6ftpqxgnv","msl000094","fixation","","","img/fixation.png","null","","","test","","","","","","","","","","","","","","","","","","","",""
"318","","641455","SARL_v6ftpqxgnv","msl000094","freq","","","img/green_2bandit_a2.png","70","","70","test","1","","","square","circle","72","70","26","3","0.9857142857142858","","","","","","","","","",""
"null","","641943","SARL_v6ftpqxgnv","msl000094","freq_resp","","","img/green_2bandit_a.png","70","img/green_2bandit_a.png","70","test","","","","","","","","","3","","","","","","","","","","",""
"null","","642099","SARL_v6ftpqxgnv","msl000094","fixation","","","img/fixation.png","null","","","test","","","","","","","","","","","","","","","","","","","",""
"295","","642400","SARL_v6ftpqxgnv","msl000094","freq","","","img/green_2bandit_a2.png","70","","70","test","1","","","square","circle","73","71","27","3","0.9859154929577465","","","","","","","","","",""
"null","","642911","SARL_v6ftpqxgnv","msl000094","freq_resp","","","img/green_2bandit_a.png","70","img/green_2bandit_a.png","70","test","","","","","","","","","3","","","","","","","","","","",""
"null","","643067","SARL_v6ftpqxgnv","msl000094","fixation","","","img/fixation.png","null","","","test","","","","","","","","","","","","","","","","","","","",""
"302","","643373","SARL_v6ftpqxgnv","msl000094","freq","","","img/green_2bandit_a2.png","70","","70","test","1","","","square","circle","74","72","28","3","0.9861111111111112","","","","","","","","","",""
"null","","643876","SARL_v6ftpqxgnv","msl000094","freq_resp","","","img/green_2bandit_a.png","70","img/green_2bandit_a.png","70","test","","","","","","","","","3","","","","","","","","","","",""
"null","","644032","SARL_v6ftpqxgnv","msl000094","fixation","","","img/fixation.png","null","","","test","","","","","","","","","","","","","","","","","","","",""
"292","","644330","SARL_v6ftpqxgnv","msl000094","freq","","","img/green_2bandit_a2.png","70","","70","test","1","","","square","circle","75","73","29","3","0.9863013698630136","","","","","","","","","",""
"null","","644842","SARL_v6ftpqxgnv","msl000094","freq_resp","","","img/green_2bandit_a.png","70","img/green_2bandit_a.png","70","test","","","","","","","","","3","","","","","","","","","","",""
"null","","644998","SARL_v6ftpqxgnv","msl000094","fixation","","","img/fixation.png","null","","","test","","","","","","","","","","","","","","","","","","","",""
"473","","645476","SARL_v6ftpqxgnv","msl000094","rl","","","img/black_2bandit_a2.png","74","","0","test","","","0","square","circle","76","","0","3","","74","0.2","0.8","0.9647154038150835","0.8","0.2","0.8","square","3","0"
"null","","646232","SARL_v6ftpqxgnv","msl000094","feedback","","","img/boo_L_a.png","null","","na","test","","","","","","","","","3","","74","0.2","0.8","","","","0.8","","3",""
"477","","646715","SARL_v6ftpqxgnv","msl000094","freq","","","img/green_2bandit_a2.png","70","","70","test","1","","","square","circle","77","74","1","4","0.9864864864864865","","","","","","","","","",""
"null","","647043","SARL_v6ftpqxgnv","msl000094","freq_resp","","","img/green_2bandit_a.png","70","img/green_2bandit_a.png","70","test","","","","","","","","","4","","","","","","","","","","",""
"null","","647199","SARL_v6ftpqxgnv","msl000094","fixation","","","img/fixation.png","null","","","test","","","","","","","","","","","","","","","","","","","",""
"490","","647694","SARL_v6ftpqxgnv","msl000094","freq","","","img/green_2bandit_a2.png","70","","70","test","1","","","square","circle","78","75","2","4","0.9866666666666667","","","","","","","","","",""
"null","","648010","SARL_v6ftpqxgnv","msl000094","freq_resp","","","img/green_2bandit_a.png","70","img/green_2bandit_a.png","70","test","","","","","","","","","4","","","","","","","","","","",""
"null","","648166","SARL_v6ftpqxgnv","msl000094","fixation","","","img/fixation.png","null","","","test","","","","","","","","","","","","","","","","","","","",""
"490","","648663","SARL_v6ftpqxgnv","msl000094","freq","","","img/green_2bandit_a2.png","70","","70","test","1","","","square","circle","79","76","3","4","0.9868421052631579","","","","","","","","","",""
"null","","648980","SARL_v6ftpqxgnv","msl000094","freq_resp","","","img/green_2bandit_a.png","70","img/green_2bandit_a.png","70","test","","","","","","","","","4","","","","","","","","","","",""
"null","","649136","SARL_v6ftpqxgnv","msl000094","fixation","","","img/fixation.png","null","","","test","","","","","","","","","","","","","","","","","","","",""
"463","","649604","SARL_v6ftpqxgnv","msl000094","freq","","","img/green_2bandit_a2.png","70","","70","test","1","","","square","circle","80","77","4","4","0.987012987012987","","","","","","","","","",""
"null","","649947","SARL_v6ftpqxgnv","msl000094","freq_resp","","","img/green_2bandit_a.png","70","img/green_2bandit_a.png","70","test","","","","","","","","","4","","","","","","","","","","",""
"null","","650104","SARL_v6ftpqxgnv","msl000094","fixation","","","img/fixation.png","null","","","test","","","","","","","","","","","","","","","","","","","",""
"581","","650691","SARL_v6ftpqxgnv","msl000094","freq","","","img/green_2bandit_a2.png","70","","70","test","1","","","square","circle","81","78","5","4","0.9871794871794872","","","","","","","","","",""
"null","","650917","SARL_v6ftpqxgnv","msl000094","freq_resp","","","img/green_2bandit_a.png","70","img/green_2bandit_a.png","70","test","","","","","","","","","4","","","","","","","","","","",""
"null","","651074","SARL_v6ftpqxgnv","msl000094","fixation","","","img/fixation.png","null","","","test","","","","","","","","","","","","","","","","","","","",""
"468","","651547","SARL_v6ftpqxgnv","msl000094","freq","","","img/green_2bandit_a2.png","70","","70","test","1","","","square","circle","82","79","6","4","0.9873417721518988","","","","","","","","","",""
"null","","651886","SARL_v6ftpqxgnv","msl000094","freq_resp","","","img/green_2bandit_a.png","70","img/green_2bandit_a.png","70","test","","","","","","","","","4","","","","","","","","","","",""
"null","","652041","SARL_v6ftpqxgnv","msl000094","fixation","","","img/fixation.png","null","","","test","","","","","","","","","","","","","","","","","","","",""
"433","","652480","SARL_v6ftpqxgnv","msl000094","freq","","","img/green_2bandit_a2.png","70","","70","test","1","","","square","circle","83","80","7","4","0.9875","","","","","","","","","",""
"null","","652854","SARL_v6ftpqxgnv","msl000094","freq_resp","","","img/green_2bandit_a.png","70","img/green_2bandit_a.png","70","test","","","","","","","","","4","","","","","","","","","","",""
"null","","653009","SARL_v6ftpqxgnv","msl000094","fixation","","","img/fixation.png","null","","","test","","","","","","","","","","","","","","","","","","","",""
"392","","653405","SARL_v6ftpqxgnv","msl000094","freq","","","img/green_2bandit_a2.png","70","","70","test","1","","","square","circle","84","81","8","4","0.9876543209876543","","","","","","","","","",""
"null","","653819","SARL_v6ftpqxgnv","msl000094","freq_resp","","","img/green_2bandit_a.png","70","img/green_2bandit_a.png","70","test","","","","","","","","","4","","","","","","","","","","",""
"null","","653974","SARL_v6ftpqxgnv","msl000094","fixation","","","img/fixation.png","null","","","test","","","","","","","","","","","","","","","","","","","",""
"634","","654613","SARL_v6ftpqxgnv","msl000094","infreq","","","img/orange_2bandit_a2.png","68","","68","test","1","","","square","circle","85","82","9","4","0.9878048780487805","","","","","","","","","",""
"null","","654785","SARL_v6ftpqxgnv","msl000094","infreq_resp","","","img/orange_2bandit_a.png","68","img/orange_2bandit_a.png","68","test","","","","","","","","","4","","","","","","","","","","",""
"null","","654940","SARL_v6ftpqxgnv","msl000094","fixation","","","img/fixation.png","null","","","test","","","","","","","","","","","","","","","","","","","",""
"643","","655588","SARL_v6ftpqxgnv","msl000094","freq","","","img/green_2bandit_a2.png","70","","70","test","1","","","square","circle","86","83","10","4","0.9879518072289156","","","","","","","","","",""
"null","","655751","SARL_v6ftpqxgnv","msl000094","freq_resp","","","img/green_2bandit_a.png","70","img/green_2bandit_a.png","70","test","","","","","","","","","4","","","","","","","","","","",""
"null","","655906","SARL_v6ftpqxgnv","msl000094","fixation","","","img/fixation.png","null","","","test","","","","","","","","","","","","","","","","","","","",""
"584","","656496","SARL_v6ftpqxgnv","msl000094","freq","","","img/green_2bandit_a2.png","70","","70","test","1","","","square","circle","87","84","11","4","0.9880952380952381","","","","","","","","","",""
"null","","656718","SARL_v6ftpqxgnv","msl000094","freq_resp","","","img/green_2bandit_a.png","70","img/green_2bandit_a.png","70","test","","","","","","","","","4","","","","","","","","","","",""
"null","","656874","SARL_v6ftpqxgnv","msl000094","fixation","","","img/fixation.png","null","","","test","","","","","","","","","","","","","","","","","","","",""
"656","","657534","SARL_v6ftpqxgnv","msl000094","freq","","","img/green_2bandit_a2.png","70","","70","test","1","","","square","circle","88","85","12","4","0.9882352941176471","","","","","","","","","",""
"null","","657685","SARL_v6ftpqxgnv","msl000094","freq_resp","","","img/green_2bandit_a.png","70","img/green_2bandit_a.png","70","test","","","","","","","","","4","","","","","","","","","","",""
"null","","657841","SARL_v6ftpqxgnv","msl000094","fixation","","","img/fixation.png","null","","","test","","","","","","","","","","","","","","","","","","","",""
"621","","658467","SARL_v6ftpqxgnv","msl000094","freq","","","img/green_2bandit_a2.png","70","","70","test","1","","","square","circle","89","86","13","4","0.9883720930232558","","","","","","","","","",""
"null","","658653","SARL_v6ftpqxgnv","msl000094","freq_resp","","","img/green_2bandit_a.png","70","img/green_2bandit_a.png","70","test","","","","","","","","","4","","","","","","","","","","",""
"null","","658809","SARL_v6ftpqxgnv","msl000094","fixation","","","img/fixation.png","null","","","test","","","","","","","","","","","","","","","","","","","",""
"688","","659501","SARL_v6ftpqxgnv","msl000094","freq","","","img/green_2bandit_a2.png","70","","70","test","1","","","square","circle","90","87","14","4","0.9885057471264368","","","","","","","","","",""
"null","","659619","SARL_v6ftpqxgnv","msl000094","freq_resp","","","img/green_2bandit_a.png","70","img/green_2bandit_a.png","70","test","","","","","","","","","4","","","","","","","","","","",""
"null","","659775","SARL_v6ftpqxgnv","msl000094","fixation","","","img/fixation.png","null","","","test","","","","","","","","","","","","","","","","","","","",""
"610","","660389","SARL_v6ftpqxgnv","msl000094","freq","","","img/green_2bandit_a2.png","70","","70","test","1","","","square","circle","91","88","15","4","0.9886363636363636","","","","","","","","","",""
"null","","660584","SARL_v6ftpqxgnv","msl000094","freq_resp","","","img/green_2bandit_a.png","70","img/green_2bandit_a.png","70","test","","","","","","","","","4","","","","","","","","","","",""
"null","","660741","SARL_v6ftpqxgnv","msl000094","fixation","","","img/fixation.png","null","","","test","","","","","","","","","","","","","","","","","","","",""
"587","","661334","SARL_v6ftpqxgnv","msl000094","freq","","","img/green_2bandit_a2.png","70","","70","test","1","","","square","circle","92","89","16","4","0.9887640449438202","","","","","","","","","",""
"null","","661553","SARL_v6ftpqxgnv","msl000094","freq_resp","","","img/green_2bandit_a.png","70","img/green_2bandit_a.png","70","test","","","","","","","","","4","","","","","","","","","","",""
"null","","661708","SARL_v6ftpqxgnv","msl000094","fixation","","","img/fixation.png","null","","","test","","","","","","","","","","","","","","","","","","","",""
"555","","662268","SARL_v6ftpqxgnv","msl000094","freq","","","img/green_2bandit_a2.png","70","","70","test","1","","","square","circle","93","90","17","4","0.9888888888888889","","","","","","","","","",""
"null","","662520","SARL_v6ftpqxgnv","msl000094","freq_resp","","","img/green_2bandit_a.png","70","img/green_2bandit_a.png","70","test","","","","","","","","","4","","","","","","","","","","",""
"null","","662675","SARL_v6ftpqxgnv","msl000094","fixation","","","img/fixation.png","null","","","test","","","","","","","","","","","","","","","","","","","",""
"526","","663207","SARL_v6ftpqxgnv","msl000094","infreq","","","img/orange_2bandit_a2.png","68","","68","test","1","","","square","circle","94","91","18","4","0.989010989010989","","","","","","","","","",""
"null","","663486","SARL_v6ftpqxgnv","msl000094","infreq_resp","","","img/orange_2bandit_a.png","68","img/orange_2bandit_a.png","68","test","","","","","","","","","4","","","","","","","","","","",""
"null","","663642","SARL_v6ftpqxgnv","msl000094","fixation","","","img/fixation.png","null","","","test","","","","","","","","","","","","","","","","","","","",""
"448","","664095","SARL_v6ftpqxgnv","msl000094","freq","","","img/green_2bandit_a2.png","70","","70","test","1","","","square","circle","95","92","19","4","0.9891304347826086","","","","","","","","","",""
"null","","664452","SARL_v6ftpqxgnv","msl000094","freq_resp","","","img/green_2bandit_a.png","70","img/green_2bandit_a.png","70","test","","","","","","","","","4","","","","","","","","","","",""
"null","","664608","SARL_v6ftpqxgnv","msl000094","fixation","","","img/fixation.png","null","","","test","","","","","","","","","","","","","","","","","","","",""
"519","","665132","SARL_v6ftpqxgnv","msl000094","freq","","","img/green_2bandit_a2.png","70","","70","test","1","","","square","circle","96","93","20","4","0.989247311827957","","","","","","","","","",""
"null","","665417","SARL_v6ftpqxgnv","msl000094","freq_resp","","","img/green_2bandit_a.png","70","img/green_2bandit_a.png","70","test","","","","","","","","","4","","","","","","","","","","",""
"null","","665574","SARL_v6ftpqxgnv","msl000094","fixation","","","img/fixation.png","null","","","test","","","","","","","","","","","","","","","","","","","",""
"482","","666061","SARL_v6ftpqxgnv","msl000094","freq","","","img/green_2bandit_a2.png","70","","70","test","1","","","square","circle","97","94","21","4","0.9893617021276596","","","","","","","","","",""
"null","","666383","SARL_v6ftpqxgnv","msl000094","freq_resp","","","img/green_2bandit_a.png","70","img/green_2bandit_a.png","70","test","","","","","","","","","4","","","","","","","","","","",""
"null","","666540","SARL_v6ftpqxgnv","msl000094","fixation","","","img/fixation.png","null","","","test","","","","","","","","","","","","","","","","","","","",""
"416","","666960","SARL_v6ftpqxgnv","msl000094","freq","","","img/green_2bandit_a2.png","70","","70","test","1","","","square","circle","98","95","22","4","0.9894736842105263","","","","","","","","","",""
"null","","667350","SARL_v6ftpqxgnv","msl000094","freq_resp","","","img/green_2bandit_a.png","70","img/green_2bandit_a.png","70","test","","","","","","","","","4","","","","","","","","","","",""
"null","","667505","SARL_v6ftpqxgnv","msl000094","fixation","","","img/fixation.png","null","","","test","","","","","","","","","","","","","","","","","","","",""
"475","","667986","SARL_v6ftpqxgnv","msl000094","freq","","","img/green_2bandit_a2.png","70","","70","test","1","","","square","circle","99","96","23","4","0.9895833333333334","","","","","","","","","",""
"null","","668317","SARL_v6ftpqxgnv","msl000094","freq_resp","","","img/green_2bandit_a.png","70","img/green_2bandit_a.png","70","test","","","","","","","","","4","","","","","","","","","","",""
"null","","668473","SARL_v6ftpqxgnv","msl000094","fixation","","","img/fixation.png","null","","","test","","","","","","","","","","","","","","","","","","","",""
"404","","668880","SARL_v6ftpqxgnv","msl000094","freq","","","img/green_2bandit_a2.png","70","","70","test","1","","","square","circle","100","97","24","4","0.9896907216494846","","","","","","","","","",""
"null","","669281","SARL_v6ftpqxgnv","msl000094","freq_resp","","","img/green_2bandit_a.png","70","img/green_2bandit_a.png","70","test","","","","","","","","","4","","","","","","","","","","",""
"null","","669438","SARL_v6ftpqxgnv","msl000094","fixation","","","img/fixation.png","null","","","test","","","","","","","","","","","","","","","","","","","",""
"391","","669834","SARL_v6ftpqxgnv","msl000094","freq","","","img/green_2bandit_a2.png","70","","70","test","1","","","square","circle","101","98","25","4","0.9897959183673469","","","","","","","","","",""
"null","","670249","SARL_v6ftpqxgnv","msl000094","freq_resp","","","img/green_2bandit_a.png","70","img/green_2bandit_a.png","70","test","","","","","","","","","4","","","","","","","","","","",""
"null","","670403","SARL_v6ftpqxgnv","msl000094","fixation","","","img/fixation.png","null","","","test","","","","","","","","","","","","","","","","","","","",""
"400","","670808","SARL_v6ftpqxgnv","msl000094","freq","","","img/green_2bandit_a2.png","70","","70","test","1","","","square","circle","102","99","26","4","0.98989898989899","","","","","","","","","",""
"null","","671213","SARL_v6ftpqxgnv","msl000094","freq_resp","","","img/green_2bandit_a.png","70","img/green_2bandit_a.png","70","test","","","","","","","","","4","","","","","","","","","","",""
"null","","671369","SARL_v6ftpqxgnv","msl000094","fixation","","","img/fixation.png","null","","","test","","","","","","","","","","","","","","","","","","","",""
"394","","671768","SARL_v6ftpqxgnv","msl000094","freq","","","img/green_2bandit_a2.png","70","","70","test","1","","","square","circle","103","100","27","4","0.99","","","","","","","","","",""
"null","","672180","SARL_v6ftpqxgnv","msl000094","freq_resp","","","img/green_2bandit_a.png","70","img/green_2bandit_a.png","70","test","","","","","","","","","4","","","","","","","","","","",""
"null","","672337","SARL_v6ftpqxgnv","msl000094","fixation","","","img/fixation.png","null","","","test","","","","","","","","","","","","","","","","","","","",""
"479","","672822","SARL_v6ftpqxgnv","msl000094","rl","","","img/black_2bandit_a2.png","75","","0","test","","","0","square","circle","104","","0","4","","75","0.2","0.8","0.3036507988231948","0.8","0.2","0.2","circle","4","0"
"null","","673578","SARL_v6ftpqxgnv","msl000094","feedback","","","img/boo_R_a.png","null","","na","test","","","","","","","","","4","","75","0.2","0.8","","","","0.2","","4",""
"507","","674089","SARL_v6ftpqxgnv","msl000094","freq","","","img/green_2bandit_a2.png","70","","70","test","1","","","square","circle","105","101","1","5","0.9900990099009901","","","","","","","","","",""
"null","","674389","SARL_v6ftpqxgnv","msl000094","freq_resp","","","img/green_2bandit_a.png","70","img/green_2bandit_a.png","70","test","","","","","","","","","5","","","","","","","","","","",""
"null","","674544","SARL_v6ftpqxgnv","msl000094","fixation","","","img/fixation.png","null","","","test","","","","","","","","","","","","","","","","","","","",""
"505","","675054","SARL_v6ftpqxgnv","msl000094","freq","","","img/green_2bandit_a2.png","70","","70","test","1","","","square","circle","106","102","2","5","0.9901960784313726","","","","","","","","","",""
"null","","675355","SARL_v6ftpqxgnv","msl000094","freq_resp","","","img/green_2bandit_a.png","70","img/green_2bandit_a.png","70","test","","","","","","","","","5","","","","","","","","","","",""
"null","","675509","SARL_v6ftpqxgnv","msl000094","fixation","","","img/fixation.png","null","","","test","","","","","","","","","","","","","","","","","","","",""
"497","","676013","SARL_v6ftpqxgnv","msl000094","freq","","","img/green_2bandit_a2.png","70","","70","test","1","","","square","circle","107","103","3","5","0.9902912621359223","","","","","","","","","",""
"null","","676322","SARL_v6ftpqxgnv","msl000094","freq_resp","","","img/green_2bandit_a.png","70","img/green_2bandit_a.png","70","test","","","","","","","","","5","","","","","","","","","","",""
"null","","676478","SARL_v6ftpqxgnv","msl000094","fixation","","","img/fixation.png","null","","","test","","","","","","","","","","","","","","","","","","","",""
"506","","676988","SARL_v6ftpqxgnv","msl000094","freq","","","img/green_2bandit_a2.png","70","","70","test","1","","","square","circle","108","104","4","5","0.9903846153846154","","","","","","","","","",""
"null","","677288","SARL_v6ftpqxgnv","msl000094","freq_resp","","","img/green_2bandit_a.png","70","img/green_2bandit_a.png","70","test","","","","","","","","","5","","","","","","","","","","",""
"null","","677444","SARL_v6ftpqxgnv","msl000094","fixation","","","img/fixation.png","null","","","test","","","","","","","","","","","","","","","","","","","",""
"465","","677915","SARL_v6ftpqxgnv","msl000094","freq","","","img/green_2bandit_a2.png","70","","70","test","1","","","square","circle","109","105","5","5","0.9904761904761905","","","","","","","","","",""
"null","","678256","SARL_v6ftpqxgnv","msl000094","freq_resp","","","img/green_2bandit_a.png","70","img/green_2bandit_a.png","70","test","","","","","","","","","5","","","","","","","","","","",""
"null","","678411","SARL_v6ftpqxgnv","msl000094","fixation","","","img/fixation.png","null","","","test","","","","","","","","","","","","","","","","","","","",""
"432","","678848","SARL_v6ftpqxgnv","msl000094","freq","","","img/green_2bandit_a2.png","70","","70","test","1","","","square","circle","110","106","6","5","0.9905660377358491","","","","","","","","","",""
"null","","679222","SARL_v6ftpqxgnv","msl000094","freq_resp","","","img/green_2bandit_a.png","70","img/green_2bandit_a.png","70","test","","","","","","","","","5","","","","","","","","","","",""
"null","","679376","SARL_v6ftpqxgnv","msl000094","fixation","","","img/fixation.png","null","","","test","","","","","","","","","","","","","","","","","","","",""
"437","","679820","SARL_v6ftpqxgnv","msl000094","freq","","","img/green_2bandit_a2.png","70","","70","test","1","","","square","circle","111","107","7","5","0.9906542056074766","","","","","","","","","",""
"null","","680189","SARL_v6ftpqxgnv","msl000094","freq_resp","","","img/green_2bandit_a.png","70","img/green_2bandit_a.png","70","test","","","","","","","","","5","","","","","","","","","","",""
"null","","680343","SARL_v6ftpqxgnv","msl000094","fixation","","","img/fixation.png","null","","","test","","","","","","","","","","","","","","","","","","","",""
"461","","680810","SARL_v6ftpqxgnv","msl000094","freq","","","img/green_2bandit_a2.png","70","","70","test","1","","","square","circle","112","108","8","5","0.9907407407407407","","","","","","","","","",""
"null","","681156","SARL_v6ftpqxgnv","msl000094","freq_resp","","","img/green_2bandit_a.png","70","img/green_2bandit_a.png","70","test","","","","","","","","","5","","","","","","","","","","",""
"null","","681311","SARL_v6ftpqxgnv","msl000094","fixation","","","img/fixation.png","null","","","test","","","","","","","","","","","","","","","","","","","",""
"450","","681766","SARL_v6ftpqxgnv","msl000094","freq","","","img/green_2bandit_a2.png","70","","70","test","1","","","square","circle","113","109","9","5","0.9908256880733946","","","","","","","","","",""
"null","","682123","SARL_v6ftpqxgnv","msl000094","freq_resp","","","img/green_2bandit_a.png","70","img/green_2bandit_a.png","70","test","","","","","","","","","5","","","","","","","","","","",""
"null","","682278","SARL_v6ftpqxgnv","msl000094","fixation","","","img/fixation.png","null","","","test","","","","","","","","","","","","","","","","","","","",""
"379","","682662","SARL_v6ftpqxgnv","msl000094","freq","","","img/green_2bandit_a2.png","70","","70","test","1","","","square","circle","114","110","10","5","0.990909090909091","","","","","","","","","",""
"null","","683088","SARL_v6ftpqxgnv","msl000094","freq_resp","","","img/green_2bandit_a.png","70","img/green_2bandit_a.png","70","test","","","","","","","","","5","","","","","","","","","","",""
"null","","683245","SARL_v6ftpqxgnv","msl000094","fixation","","","img/fixation.png","null","","","test","","","","","","","","","","","","","","","","","","","",""
"376","","683625","SARL_v6ftpqxgnv","msl000094","freq","","","img/green_2bandit_a2.png","70","","70","test","1","","","square","circle","115","111","11","5","0.990990990990991","","","","","","","","","",""
"null","","684055","SARL_v6ftpqxgnv","msl000094","freq_resp","","","img/green_2bandit_a.png","70","img/green_2bandit_a.png","70","test","","","","","","","","","5","","","","","","","","","","",""
"null","","684211","SARL_v6ftpqxgnv","msl000094","fixation","","","img/fixation.png","null","","","test","","","","","","","","","","","","","","","","","","","",""
"416","","684632","SARL_v6ftpqxgnv","msl000094","infreq","","","img/orange_2bandit_a2.png","68","","68","test","1","","","square","circle","116","112","12","5","0.9910714285714286","","","","","","","","","",""
"null","","685021","SARL_v6ftpqxgnv","msl000094","infreq_resp","","","img/orange_2bandit_a.png","68","img/orange_2bandit_a.png","68","test","","","","","","","","","5","","","","","","","","","","",""
"null","","685177","SARL_v6ftpqxgnv","msl000094","fixation","","","img/fixation.png","null","","","test","","","","","","","","","","","","","","","","","","","",""
"377","","685559","SARL_v6ftpqxgnv","msl000094","freq","","","img/green_2bandit_a2.png","70","","70","test","1","","","square","circle","117","113","13","5","0.9911504424778761","","","","","","","","","",""
"null","","685986","SARL_v6ftpqxgnv","msl000094","freq_resp","","","img/green_2bandit_a.png","70","img/green_2bandit_a.png","70","test","","","","","","","","","5","","","","","","","","","","",""
"null","","686142","SARL_v6ftpqxgnv","msl000094","fixation","","","img/fixation.png","null","","","test","","","","","","","","","","","","","","","","","","","",""
"387","","686533","SARL_v6ftpqxgnv","msl000094","freq","","","img/green_2bandit_a2.png","70","","70","test","1","","","square","circle","118","114","14","5","0.9912280701754386","","","","","","","","","",""
"null","","686953","SARL_v6ftpqxgnv","msl000094","freq_resp","","","img/green_2bandit_a.png","70","img/green_2bandit_a.png","70","test","","","","","","","","","5","","","","","","","","","","",""
"null","","687109","SARL_v6ftpqxgnv","msl000094","fixation","","","img/fixation.png","null","","","test","","","","","","","","","","","","","","","","","","","",""
"331","","687445","SARL_v6ftpqxgnv","msl000094","freq","","","img/green_2bandit_a2.png","70","","70","test","1","","","square","circle","119","115","15","5","0.991304347826087","","","","","","","","","",""
"null","","687920","SARL_v6ftpqxgnv","msl000094","freq_resp","","","img/green_2bandit_a.png","70","img/green_2bandit_a.png","70","test","","","","","","","","","5","","","","","","","","","","",""
"null","","688076","SARL_v6ftpqxgnv","msl000094","fixation","","","img/fixation.png","null","","","test","","","","","","","","","","","","","","","","","","","",""
"390","","688471","SARL_v6ftpqxgnv","msl000094","freq","","","img/green_2bandit_a2.png","70","","70","test","1","","","square","circle","120","116","16","5","0.9913793103448276","","","","","","","","","",""
"null","","688887","SARL_v6ftpqxgnv","msl000094","freq_resp","","","img/green_2bandit_a.png","70","img/green_2bandit_a.png","70","test","","","","","","","","","5","","","","","","","","","","",""
"null","","689044","SARL_v6ftpqxgnv","msl000094","fixation","","","img/fixation.png","null","","","test","","","","","","","","","","","","","","","","","","","",""
"369","","689417","SARL_v6ftpqxgnv","msl000094","freq","","","img/green_2bandit_a2.png","70","","70","test","1","","","square","circle","121","117","17","5","0.9914529914529915","","","","","","","","","",""
"null","","689853","SARL_v6ftpqxgnv","msl000094","freq_resp","","","img/green_2bandit_a.png","70","img/green_2bandit_a.png","70","test","","","","","","","","","5","","","","","","","","","","",""
"null","","690009","SARL_v6ftpqxgnv","msl000094","fixation","","","img/fixation.png","null","","","test","","","","","","","","","","","","","","","","","","","",""
"377","","690391","SARL_v6ftpqxgnv","msl000094","freq","","","img/green_2bandit_a2.png","70","","70","test","1","","","square","circle","122","118","18","5","0.9915254237288136","","","","","","","","","",""
"null","","690820","SARL_v6ftpqxgnv","msl000094","freq_resp","","","img/green_2bandit_a.png","70","img/green_2bandit_a.png","70","test","","","","","","","","","5","","","","","","","","","","",""
"null","","690976","SARL_v6ftpqxgnv","msl000094","fixation","","","img/fixation.png","null","","","test","","","","","","","","","","","","","","","","","","","",""
"424","","691405","SARL_v6ftpqxgnv","msl000094","infreq","","","img/orange_2bandit_a2.png","68","","68","test","1","","","square","circle","123","119","19","5","0.9915966386554622","","","","","","","","","",""
"null","","691788","SARL_v6ftpqxgnv","msl000094","infreq_resp","","","img/orange_2bandit_a.png","68","img/orange_2bandit_a.png","68","test","","","","","","","","","5","","","","","","","","","","",""
"null","","691942","SARL_v6ftpqxgnv","msl000094","fixation","","","img/fixation.png","null","","","test","","","","","","","","","","","","","","","","","","","",""
"366","","692315","SARL_v6ftpqxgnv","msl000094","freq","","","img/green_2bandit_a2.png","70","","70","test","1","","","square","circle","124","120","20","5","0.9916666666666667","","","","","","","","","",""
"null","","692754","SARL_v6ftpqxgnv","msl000094","freq_resp","","","img/green_2bandit_a.png","70","img/green_2bandit_a.png","70","test","","","","","","","","","5","","","","","","","","","","",""
"null","","692909","SARL_v6ftpqxgnv","msl000094","fixation","","","img/fixation.png","null","","","test","","","","","","","","","","","","","","","","","","","",""
"346","","693261","SARL_v6ftpqxgnv","msl000094","freq","","","img/green_2bandit_a2.png","70","","70","test","1","","","square","circle","125","121","21","5","0.9917355371900827","","","","","","","","","",""
"null","","693723","SARL_v6ftpqxgnv","msl000094","freq_resp","","","img/green_2bandit_a.png","70","img/green_2bandit_a.png","70","test","","","","","","","","","5","","","","","","","","","","",""
"null","","693878","SARL_v6ftpqxgnv","msl000094","fixation","","","img/fixation.png","null","","","test","","","","","","","","","","","","","","","","","","","",""
"349","","694231","SARL_v6ftpqxgnv","msl000094","freq","","","img/green_2bandit_a2.png","70","","70","test","1","","","square","circle","126","122","22","5","0.9918032786885246","","","","","","","","","",""
"null","","694688","SARL_v6ftpqxgnv","msl000094","freq_resp","","","img/green_2bandit_a.png","70","img/green_2bandit_a.png","70","test","","","","","","","","","5","","","","","","","","","","",""
"null","","694843","SARL_v6ftpqxgnv","msl000094","fixation","","","img/fixation.png","null","","","test","","","","","","","","","","","","","","","","","","","",""
"266","","695114","SARL_v6ftpqxgnv","msl000094","freq","","","img/green_2bandit_a2.png","70","","70","test","1","","","square","circle","127","123","23","5","0.991869918699187","","","","","","","","","",""
"null","","695653","SARL_v6ftpqxgnv","msl000094","freq_resp","","","img/green_2bandit_a.png","70","img/green_2bandit_a.png","70","test","","","","","","","","","5","","","","","","","","","","",""
"null","","695809","SARL_v6ftpqxgnv","msl000094","fixation","","","img/fixation.png","null","","","test","","","","","","","","","","","","","","","","","","","",""
"330","","696145","SARL_v6ftpqxgnv","msl000094","freq","","","img/green_2bandit_a2.png","70","","70","test","1","","","square","circle","128","124","24","5","0.9919354838709677","","","","","","","","","",""
"null","","696621","SARL_v6ftpqxgnv","msl000094","freq_resp","","","img/green_2bandit_a.png","70","img/green_2bandit_a.png","70","test","","","","","","","","","5","","","","","","","","","","",""
"null","","696777","SARL_v6ftpqxgnv","msl000094","fixation","","","img/fixation.png","null","","","test","","","","","","","","","","","","","","","","","","","",""
"331","","697112","SARL_v6ftpqxgnv","msl000094","freq","","","img/green_2bandit_a2.png","70","","70","test","1","","","square","circle","129","125","25","5","0.992","","","","","","","","","",""
"null","","697587","SARL_v6ftpqxgnv","msl000094","freq_resp","","","img/green_2bandit_a.png","70","img/green_2bandit_a.png","70","test","","","","","","","","","5","","","","","","","","","","",""
"null","","697743","SARL_v6ftpqxgnv","msl000094","fixation","","","img/fixation.png","null","","","test","","","","","","","","","","","","","","","","","","","",""
"362","","698110","SARL_v6ftpqxgnv","msl000094","freq","","","img/green_2bandit_a2.png","70","","70","test","1","","","square","circle","130","126","26","5","0.9920634920634921","","","","","","","","","",""
"null","","698553","SARL_v6ftpqxgnv","msl000094","freq_resp","","","img/green_2bandit_a.png","70","img/green_2bandit_a.png","70","test","","","","","","","","","5","","","","","","","","","","",""
"null","","698709","SARL_v6ftpqxgnv","msl000094","fixation","","","img/fixation.png","null","","","test","","","","","","","","","","","","","","","","","","","",""
"511","","699225","SARL_v6ftpqxgnv","msl000094","infreq","","","img/orange_2bandit_a2.png","68","","68","test","1","","","square","circle","131","127","27","5","0.9921259842519685","","","","","","","","","",""
"null","","699521","SARL_v6ftpqxgnv","msl000094","infreq_resp","","","img/orange_2bandit_a.png","68","img/orange_2bandit_a.png","68","test","","","","","","","","","5","","","","","","","","","","",""
"null","","699677","SARL_v6ftpqxgnv","msl000094","fixation","","","img/fixation.png","null","","","test","","","","","","","","","","","","","","","","","","","",""
"331","","700014","SARL_v6ftpqxgnv","msl000094","freq","","","img/green_2bandit_a2.png","70","","70","test","1","","","square","circle","132","128","28","5","0.9921875","","","","","","","","","",""
"null","","700488","SARL_v6ftpqxgnv","msl000094","freq_resp","","","img/green_2bandit_a.png","70","img/green_2bandit_a.png","70","test","","","","","","","","","5","","","","","","","","","","",""
"null","","700645","SARL_v6ftpqxgnv","msl000094","fixation","","","img/fixation.png","null","","","test","","","","","","","","","","","","","","","","","","","",""
"355","","701005","SARL_v6ftpqxgnv","msl000094","freq","","","img/green_2bandit_a2.png","70","","70","test","1","","","square","circle","133","129","29","5","0.9922480620155039","","","","","","","","","",""
"null","","701455","SARL_v6ftpqxgnv","msl000094","freq_resp","","","img/green_2bandit_a.png","70","img/green_2bandit_a.png","70","test","","","","","","","","","5","","","","","","","","","","",""
"null","","701611","SARL_v6ftpqxgnv","msl000094","fixation","","","img/fixation.png","null","","","test","","","","","","","","","","","","","","","","","","","",""
"374","","701991","SARL_v6ftpqxgnv","msl000094","freq","","","img/green_2bandit_a2.png","70","","70","test","1","","","square","circle","134","130","30","5","0.9923076923076923","","","","","","","","","",""
"null","","702423","SARL_v6ftpqxgnv","msl000094","freq_resp","","","img/green_2bandit_a.png","70","img/green_2bandit_a.png","70","test","","","","","","","","","5","","","","","","","","","","",""
"null","","702579","SARL_v6ftpqxgnv","msl000094","fixation","","","img/fixation.png","null","","","test","","","","","","","","","","","","","","","","","","","",""
"459","","703043","SARL_v6ftpqxgnv","msl000094","rl","","","img/black_2bandit_a2.png","75","","0","test","","","0","square","circle","135","","0","5","","75","0.2","0.8","0.8520637037247155","0.8","0.2","0.2","circle","5","0"
"null","","703798","SARL_v6ftpqxgnv","msl000094","feedback","","","img/boo_R_a.png","null","","na","test","","","","","","","","","5","","75","0.2","0.8","","","","0.2","","5",""
"409","","704212","SARL_v6ftpqxgnv","msl000094","freq","","","img/green_2bandit_a2.png","70","","70","test","1","","","square","circle","136","131","1","6","0.9923664122137404","","","","","","","","","",""
"null","","704609","SARL_v6ftpqxgnv","msl000094","freq_resp","","","img/green_2bandit_a.png","70","img/green_2bandit_a.png","70","test","","","","","","","","","6","","","","","","","","","","",""
"null","","704764","SARL_v6ftpqxgnv","msl000094","fixation","","","img/fixation.png","null","","","test","","","","","","","","","","","","","","","","","","","",""
"512","","705281","SARL_v6ftpqxgnv","msl000094","freq","","","img/green_2bandit_a2.png","70","","70","test","1","","","square","circle","137","132","2","6","0.9924242424242424","","","","","","","","","",""
"null","","705575","SARL_v6ftpqxgnv","msl000094","freq_resp","","","img/green_2bandit_a.png","70","img/green_2bandit_a.png","70","test","","","","","","","","","6","","","","","","","","","","",""
"null","","705731","SARL_v6ftpqxgnv","msl000094","fixation","","","img/fixation.png","null","","","test","","","","","","","","","","","","","","","","","","","",""
"630","","706366","SARL_v6ftpqxgnv","msl000094","freq","","","img/green_2bandit_a2.png","70","","70","test","1","","","square","circle","138","133","3","6","0.9924812030075187","","","","","","","","","",""
"null","","706542","SARL_v6ftpqxgnv","msl000094","freq_resp","","","img/green_2bandit_a.png","70","img/green_2bandit_a.png","70","test","","","","","","","","","6","","","","","","","","","","",""
"null","","706698","SARL_v6ftpqxgnv","msl000094","fixation","","","img/fixation.png","null","","","test","","","","","","","","","","","","","","","","","","","",""
"592","","707294","SARL_v6ftpqxgnv","msl000094","freq","","","img/green_2bandit_a2.png","70","","70","test","1","","","square","circle","139","134","4","6","0.9925373134328358","","","","","","","","","",""
"null","","707507","SARL_v6ftpqxgnv","msl000094","freq_resp","","","img/green_2bandit_a.png","70","img/green_2bandit_a.png","70","test","","","","","","","","","6","","","","","","","","","","",""
"null","","707663","SARL_v6ftpqxgnv","msl000094","fixation","","","img/fixation.png","null","","","test","","","","","","","","","","","","","","","","","","","",""
"466","","708133","SARL_v6ftpqxgnv","msl000094","infreq","","","img/orange_2bandit_a2.png","68","","68","test","1","","","square","circle","140","135","5","6","0.9925925925925926","","","","","","","","","",""
"null","","708473","SARL_v6ftpqxgnv","msl000094","infreq_resp","","","img/orange_2bandit_a.png","68","img/orange_2bandit_a.png","68","test","","","","","","","","","6","","","","","","","","","","",""
"null","","708627","SARL_v6ftpqxgnv","msl000094","fixation","","","img/fixation.png","null","","","test","","","","","","","","","","","","","","","","","","","",""
"434","","709065","SARL_v6ftpqxgnv","msl000094","freq","","","img/green_2bandit_a2.png","70","","70","test","1","","","square","circle","141","136","6","6","0.9926470588235294","","","","","","","","","",""
"null","","709438","SARL_v6ftpqxgnv","msl000094","freq_resp","","","img/green_2bandit_a.png","70","img/green_2bandit_a.png","70","test","","","","","","","","","6","","","","","","","","","","",""
"null","","709594","SARL_v6ftpqxgnv","msl000094","fixation","","","img/fixation.png","null","","","test","","","","","","","","","","","","","","","","","","","",""
"441","","710039","SARL_v6ftpqxgnv","msl000094","freq","","","img/green_2bandit_a2.png","70","","70","test","1","","","square","circle","142","137","7","6","0.9927007299270073","","","","","","","","","",""
"null","","710405","SARL_v6ftpqxgnv","msl000094","freq_resp","","","img/green_2bandit_a.png","70","img/green_2bandit_a.png","70","test","","","","","","","","","6","","","","","","","","","","",""
"null","","710561","SARL_v6ftpqxgnv","msl000094","fixation","","","img/fixation.png","null","","","test","","","","","","","","","","","","","","","","","","","",""
"428","","710993","SARL_v6ftpqxgnv","msl000094","freq","","","img/green_2bandit_a2.png","70","","70","test","1","","","square","circle","143","138","8","6","0.9927536231884058","","","","","","","","","",""
"null","","711371","SARL_v6ftpqxgnv","msl000094","freq_resp","","","img/green_2bandit_a.png","70","img/green_2bandit_a.png","70","test","","","","","","","","","6","","","","","","","","","","",""
"null","","711528","SARL_v6ftpqxgnv","msl000094","fixation","","","img/fixation.png","null","","","test","","","","","","","","","","","","","","","","","","","",""
"379","","711911","SARL_v6ftpqxgnv","msl000094","freq","","","img/green_2bandit_a2.png","70","","70","test","1","","","square","circle","144","139","9","6","0.9928057553956835","","","","","","","","","",""
"null","","712337","SARL_v6ftpqxgnv","msl000094","freq_resp","","","img/green_2bandit_a.png","70","img/green_2bandit_a.png","70","test","","","","","","","","","6","","","","","","","","","","",""
"null","","712493","SARL_v6ftpqxgnv","msl000094","fixation","","","img/fixation.png","null","","","test","","","","","","","","","","","","","","","","","","","",""
"384","","712882","SARL_v6ftpqxgnv","msl000094","freq","","","img/green_2bandit_a2.png","70","","70","test","1","","","square","circle","145","140","10","6","0.9928571428571429","","","","","","","","","",""
"null","","713303","SARL_v6ftpqxgnv","msl000094","freq_resp","","","img/green_2bandit_a.png","70","img/green_2bandit_a.png","70","test","","","","","","","","","6","","","","","","","","","","",""
"null","","713458","SARL_v6ftpqxgnv","msl000094","fixation","","","img/fixation.png","null","","","test","","","","","","","","","","","","","","","","","","","",""
"550","","714014","SARL_v6ftpqxgnv","msl000094","infreq","","","img/orange_2bandit_a2.png","68","","68","test","1","","","square","circle","146","141","11","6","0.9929078014184397","","","","","","","","","",""
"null","","714270","SARL_v6ftpqxgnv","msl000094","infreq_resp","","","img/orange_2bandit_a.png","68","img/orange_2bandit_a.png","68","test","","","","","","","","","6","","","","","","","","","","",""
"null","","714426","SARL_v6ftpqxgnv","msl000094","fixation","","","img/fixation.png","null","","","test","","","","","","","","","","","","","","","","","","","",""
"463","","714894","SARL_v6ftpqxgnv","msl000094","freq","","","img/green_2bandit_a2.png","70","","70","test","1","","","square","circle","147","142","12","6","0.9929577464788732","","","","","","","","","",""
"null","","715236","SARL_v6ftpqxgnv","msl000094","freq_resp","","","img/green_2bandit_a.png","70","img/green_2bandit_a.png","70","test","","","","","","","","","6","","","","","","","","","","",""
"null","","715392","SARL_v6ftpqxgnv","msl000094","fixation","","","img/fixation.png","null","","","test","","","","","","","","","","","","","","","","","","","",""
"328","","715724","SARL_v6ftpqxgnv","msl000094","freq","","","img/green_2bandit_a2.png","70","","70","test","1","","","square","circle","148","143","13","6","0.993006993006993","","","","","","","","","",""
"null","","716202","SARL_v6ftpqxgnv","msl000094","freq_resp","","","img/green_2bandit_a.png","70","img/green_2bandit_a.png","70","test","","","","","","","","","6","","","","","","","","","","",""
"null","","716357","SARL_v6ftpqxgnv","msl000094","fixation","","","img/fixation.png","null","","","test","","","","","","","","","","","","","","","","","","","",""
"357","","716720","SARL_v6ftpqxgnv","msl000094","freq","","","img/green_2bandit_a2.png","70","","70","test","1","","","square","circle","149","144","14","6","0.9930555555555556","","","","","","","","","",""
