"rt","responses","time_elapsed","subject","demoID","trialType","rlType","attType","stimulus","key_press","stim","corrresp","phase","corr","pracCounter","reward","bandOne","bandTwo","trialNum","attentionNum","attentionRunNum","blockNum","performance","bandChosen","circleVal","squareVal","coin","bandOneVal","bandTwoVal","pReward","shapeChosen","rlNum","badFlag"
"644573","{""Q0"":""msl000061""}","644597","SARL_v6tg11awsr","msl000061","","","","","","","","","","","","","","","","","","","","","","","","","","","",""
"11031","","655634","SARL_v6tg11awsr","msl000061","","","","","","","","","","","","","","","","","","","","","","","","","","","",""
"","","658392","SARL_v6tg11awsr","msl000061","fullscreen","fullscreen","fullscreen","","","","","","","","","","","","","","","","","","","","","","","","",""
"102690","","761085","SARL_v6tg11awsr","msl000061","","","","","","","","","","","","","","","","","","","","","","","","","","","",""
"null","","761893","SARL_v6tg11awsr","msl000061","freqPrac","","","img/orange_2bandit_b2.png","null","img/orange_2bandit_b2.png","70","prac","0","1","","","","","","","","","","","","","","","","","",""
"null","","762900","SARL_v6tg11awsr","msl000061","feedback","","","img/tooSlow.png","null","","na","prac","","","","","","","","","","","","","","","","","","","",""
"null","","763056","SARL_v6tg11awsr","msl000061","fixation","","","img/fixation.png","null","","","prac","","","","","","","","","","","","","","","","","","","",""
"564","","763625","SARL_v6tg11awsr","msl000061","infreqPrac","","","img/green_2bandit_b2.png","68","img/green_2bandit_b2.png","68","prac","1","1","","","","","","","","","","","","","","","","","",""
"564","","763867","SARL_v6tg11awsr","msl000061","infreqPrac_resp","","","img/green_2bandit_b.png","68","img/green_2bandit_b.png","68","prac","","","","","","","","","","","","","","","","","","","",""
"null","","764022","SARL_v6tg11awsr","msl000061","fixation","","","img/fixation.png","null","","","prac","","","","","","","","","","","","","","","","","","","",""
"572","","764600","SARL_v6tg11awsr","msl000061","freqPrac","","","img/orange_2bandit_b2.png","70","img/orange_2bandit_b2.png","70","prac","1","1","","","","","","","","","","","","","","","","","",""
"572","","764834","SARL_v6tg11awsr","msl000061","freqPrac_resp","","","img/orange_2bandit_b.png","70","img/orange_2bandit_b.png","70","prac","","","","","","","","","","","","","","","","","","","",""
"null","","764989","SARL_v6tg11awsr","msl000061","fixation","","","img/fixation.png","null","","","prac","","","","","","","","","","","","","","","","","","","",""
"298","","765291","SARL_v6tg11awsr","msl000061","infreqPrac","","","img/green_2bandit_b2.png","68","img/green_2bandit_b2.png","68","prac","1","1","","","","","","","","","","","","","","","","","",""
"298","","765799","SARL_v6tg11awsr","msl000061","infreqPrac_resp","","","img/green_2bandit_b.png","68","img/green_2bandit_b.png","68","prac","","","","","","","","","","","","","","","","","","","",""
"null","","765955","SARL_v6tg11awsr","msl000061","fixation","","","img/fixation.png","null","","","prac","","","","","","","","","","","","","","","","","","","",""
"541","","766500","SARL_v6tg11awsr","msl000061","infreqPrac","","","img/green_2bandit_b2.png","70","img/green_2bandit_b2.png","68","prac","0","2","","","","","","","","","","","","","","","","","",""
"541","","766765","SARL_v6tg11awsr","msl000061","infreqPrac_resp","","","img/green_2bandit_b.png","70","img/green_2bandit_b.png","68","prac","","","","","","","","","","","","","","","","","","","",""
"null","","767772","SARL_v6tg11awsr","msl000061","feedback","","","img/wrongKey.png","null","","na","prac","","","","","","","","","","","","","","","","","","","",""
"null","","767928","SARL_v6tg11awsr","msl000061","fixation","","","img/fixation.png","null","","","prac","","","","","","","","","","","","","","","","","","","",""
"591","","768524","SARL_v6tg11awsr","msl000061","infreqPrac","","","img/green_2bandit_b2.png","68","img/green_2bandit_b2.png","68","prac","1","2","","","","","","","","","","","","","","","","","",""
"591","","768739","SARL_v6tg11awsr","msl000061","infreqPrac_resp","","","img/green_2bandit_b.png","68","img/green_2bandit_b.png","68","prac","","","","","","","","","","","","","","","","","","","",""
"null","","768894","SARL_v6tg11awsr","msl000061","fixation","","","img/fixation.png","null","","","prac","","","","","","","","","","","","","","","","","","","",""
"444","","769343","SARL_v6tg11awsr","msl000061","freqPrac","","","img/orange_2bandit_b2.png","70","img/orange_2bandit_b2.png","70","prac","1","2","","","","","","","","","","","","","","","","","",""
"444","","769704","SARL_v6tg11awsr","msl000061","freqPrac_resp","","","img/orange_2bandit_b.png","70","img/orange_2bandit_b.png","70","prac","","","","","","","","","","","","","","","","","","","",""
"null","","769860","SARL_v6tg11awsr","msl000061","fixation","","","img/fixation.png","null","","","prac","","","","","","","","","","","","","","","","","","","",""
"414","","770279","SARL_v6tg11awsr","msl000061","infreqPrac","","","img/green_2bandit_b2.png","68","img/green_2bandit_b2.png","68","prac","1","2","","","","","","","","","","","","","","","","","",""
"414","","770670","SARL_v6tg11awsr","msl000061","infreqPrac_resp","","","img/green_2bandit_b.png","68","img/green_2bandit_b.png","68","prac","","","","","","","","","","","","","","","","","","","",""
"null","","770826","SARL_v6tg11awsr","msl000061","fixation","","","img/fixation.png","null","","","prac","","","","","","","","","","","","","","","","","","","",""
"460","","771290","SARL_v6tg11awsr","msl000061","freqPrac","","","img/orange_2bandit_b2.png","70","img/orange_2bandit_b2.png","70","prac","1","2","","","","","","","","","","","","","","","","","",""
"460","","771635","SARL_v6tg11awsr","msl000061","freqPrac_resp","","","img/orange_2bandit_b.png","70","img/orange_2bandit_b.png","70","prac","","","","","","","","","","","","","","","","","","","",""
"null","","771791","SARL_v6tg11awsr","msl000061","fixation","","","img/fixation.png","null","","","prac","","","","","","","","","","","","","","","","","","","",""
"377","","772172","SARL_v6tg11awsr","msl000061","freqPrac","","","img/orange_2bandit_b2.png","70","img/orange_2bandit_b2.png","70","prac","1","2","","","","","","","","","","","","","","","","","",""
"377","","772601","SARL_v6tg11awsr","msl000061","freqPrac_resp","","","img/orange_2bandit_b.png","70","img/orange_2bandit_b.png","70","prac","","","","","","","","","","","","","","","","","","","",""
"null","","772757","SARL_v6tg11awsr","msl000061","fixation","","","img/fixation.png","null","","","prac","","","","","","","","","","","","","","","","","","","",""
"32189","","804949","SARL_v6tg11awsr","msl000061","","","","","","","","prac","","","","","","","","","","","","","","","","","","","",""
"null","","806456","SARL_v6tg11awsr","msl000061","rlPractice","","","img/black_2bandit_b2.png","null","img/black_2bandit_b2.png","","prac","","","75","","","","","","","","","","","","","","","","",""
"null","","807212","SARL_v6tg11awsr","msl000061","feedback","","","img/tooSlow.png","null","","na","prac","","","","","","","","","","","","","","","","","","","",""
"null","","807368","SARL_v6tg11awsr","msl000061","fixation","","","img/fixation.png","null","","","prac","","","","","","","","","","","","","","","","","","","",""
"null","","808872","SARL_v6tg11awsr","msl000061","rlPractice","","","img/black_2bandit_b2.png","null","img/black_2bandit_b2.png","","prac","","","75","","","","","","","","","","","","","","","","",""
"null","","809629","SARL_v6tg11awsr","msl000061","feedback","","","img/tooSlow.png","null","","na","prac","","","","","","","","","","","","","","","","","","","",""
"null","","809785","SARL_v6tg11awsr","msl000061","fixation","","","img/fixation.png","null","","","prac","","","","","","","","","","","","","","","","","","","",""
"null","","811291","SARL_v6tg11awsr","msl000061","rlPractice","","","img/black_2bandit_b2.png","null","img/black_2bandit_b2.png","","prac","","","75","","","","","","","","","","","","","","","","",""
"null","","812046","SARL_v6tg11awsr","msl000061","feedback","","","img/tooSlow.png","null","","na","prac","","","","","","","","","","","","","","","","","","","",""
"null","","812203","SARL_v6tg11awsr","msl000061","fixation","","","img/fixation.png","null","","","prac","","","","","","","","","","","","","","","","","","","",""
"304","","812512","SARL_v6tg11awsr","msl000061","rlPractice","","","img/black_2bandit_b2.png","74","img/black_2bandit_b2.png","","prac","","","75","","","","","","","","","","","","","","","","",""
"null","","813268","SARL_v6tg11awsr","msl000061","feedback","","","img/boo_L_b.png","null","","na","prac","","","","","","","","","","","","","","","","","","","",""
"null","","813424","SARL_v6tg11awsr","msl000061","fixation","","","img/fixation.png","null","","","prac","","","","","","","","","","","","","","","","","","","",""
"774","","814203","SARL_v6tg11awsr","msl000061","rlPractice","","","img/black_2bandit_b2.png","74","img/black_2bandit_b2.png","","prac","","","75","","","","","","","","","","","","","","","","",""
"null","","814960","SARL_v6tg11awsr","msl000061","feedback","","","img/boo_L_b.png","null","","na","prac","","","","","","","","","","","","","","","","","","","",""
"null","","815116","SARL_v6tg11awsr","msl000061","fixation","","","img/fixation.png","null","","","prac","","","","","","","","","","","","","","","","","","","",""
"655","","815775","SARL_v6tg11awsr","msl000061","rlPractice","","","img/black_2bandit_b2.png","75","img/black_2bandit_b2.png","","prac","","","75","","","","","","","","","","","","","","","","",""
"null","","816531","SARL_v6tg11awsr","msl000061","feedback","","","img/yay_R_b.png","null","","na","prac","","","","","","","","","","","","","","","","","","","",""
"null","","816686","SARL_v6tg11awsr","msl000061","fixation","","","img/fixation.png","null","","","prac","","","","","","","","","","","","","","","","","","","",""
"790","","817480","SARL_v6tg11awsr","msl000061","rlPractice","","","img/black_2bandit_b2.png","75","img/black_2bandit_b2.png","","prac","","","75","","","","","","","","","","","","","","","","",""
"null","","818236","SARL_v6tg11awsr","msl000061","feedback","","","img/yay_R_b.png","null","","na","prac","","","","","","","","","","","","","","","","","","","",""
"null","","818393","SARL_v6tg11awsr","msl000061","fixation","","","img/fixation.png","null","","","prac","","","","","","","","","","","","","","","","","","","",""
"9848","","828246","SARL_v6tg11awsr","msl000061","","","","","","","","prac","","","","","","","","","","","","","","","","","","","",""
"null","","829051","SARL_v6tg11awsr","msl000061","mixAttFreqPrac","","","img/orange_2bandit_b2.png","null","img/orange_2bandit_b2.png","70","prac","","","","","","","","","","","","","","","","","","","",""
"7","","829208","SARL_v6tg11awsr","msl000061","fixation","","","img/fixation.png","70","","","prac","","","","","","","","","","","","","","","","","","","",""
"479","","829692","SARL_v6tg11awsr","msl000061","mixAttInfreqPrac","","","img/green_2bandit_b2.png","68","img/green_2bandit_b2.png","68","prac","","","","","","","","","","","","","","","","","","","",""
"479","","830019","SARL_v6tg11awsr","msl000061","infreqPrac_resp","","","img/green_2bandit_b.png","68","img/orange_2bandit_b.png","68","prac","","","","","","","","","","","","","","","","","","","",""
"null","","830175","SARL_v6tg11awsr","msl000061","fixation","","","img/fixation.png","null","","","prac","","","","","","","","","","","","","","","","","","","",""
"385","","830564","SARL_v6tg11awsr","msl000061","mixAttInfreqPrac","","","img/green_2bandit_b2.png","68","img/green_2bandit_b2.png","68","prac","","","","","","","","","","","","","","","","","","","",""
"385","","830985","SARL_v6tg11awsr","msl000061","infreqPrac_resp","","","img/green_2bandit_b.png","68","img/orange_2bandit_b.png","68","prac","","","","","","","","","","","","","","","","","","","",""
"null","","831141","SARL_v6tg11awsr","msl000061","fixation","","","img/fixation.png","null","","","prac","","","","","","","","","","","","","","","","","","","",""
"344","","831490","SARL_v6tg11awsr","msl000061","mixAttInfreqPrac","","","img/green_2bandit_b2.png","68","img/green_2bandit_b2.png","68","prac","","","","","","","","","","","","","","","","","","","",""
"344","","831952","SARL_v6tg11awsr","msl000061","infreqPrac_resp","","","img/green_2bandit_b.png","68","img/orange_2bandit_b.png","68","prac","","","","","","","","","","","","","","","","","","","",""
"null","","832107","SARL_v6tg11awsr","msl000061","fixation","","","img/fixation.png","null","","","prac","","","","","","","","","","","","","","","","","","","",""
"439","","832551","SARL_v6tg11awsr","msl000061","mixAttFreqPrac","","","img/orange_2bandit_b2.png","70","img/orange_2bandit_b2.png","70","prac","","","","","","","","","","","","","","","","","","","",""
"439","","832919","SARL_v6tg11awsr","msl000061","freqPrac_resp","","","img/orange_2bandit_b.png","70","img/orange_2bandit_b.png","70","prac","","","","","","","","","","","","","","","","","","","",""
"null","","833074","SARL_v6tg11awsr","msl000061","fixation","","","img/fixation.png","null","","","prac","","","","","","","","","","","","","","","","","","","",""
"979","","834058","SARL_v6tg11awsr","msl000061","mixRLPractice","","","img/black_2bandit_b2.png","75","img/black_2bandit_b2.png","","prac","","","","","","","","","","","","","","","","","","","",""
"null","","834814","SARL_v6tg11awsr","msl000061","feedback","","","img/boo_R_b.png","null","","na","prac","","","","","","","","","","","","","","","","","","","",""
"788","","835608","SARL_v6tg11awsr","msl000061","mixAttFreqPrac","","","img/orange_2bandit_b2.png","70","img/orange_2bandit_b2.png","70","prac","","","","","","","","","","","","","","","","","","","",""
"788","","835625","SARL_v6tg11awsr","msl000061","freqPrac_resp","","","img/orange_2bandit_b.png","70","img/orange_2bandit_b.png","70","prac","","","","","","","","","","","","","","","","","","","",""
"null","","835781","SARL_v6tg11awsr","msl000061","fixation","","","img/fixation.png","null","","","prac","","","","","","","","","","","","","","","","","","","",""
"605","","836391","SARL_v6tg11awsr","msl000061","mixAttInfreqPrac","","","img/green_2bandit_b2.png","68","img/green_2bandit_b2.png","68","prac","","","","","","","","","","","","","","","","","","","",""
"605","","836591","SARL_v6tg11awsr","msl000061","infreqPrac_resp","","","img/green_2bandit_b.png","68","img/orange_2bandit_b.png","68","prac","","","","","","","","","","","","","","","","","","","",""
"null","","836746","SARL_v6tg11awsr","msl000061","fixation","","","img/fixation.png","null","","","prac","","","","","","","","","","","","","","","","","","","",""
"587","","837338","SARL_v6tg11awsr","msl000061","mixAttFreqPrac","","","img/orange_2bandit_b2.png","70","img/orange_2bandit_b2.png","70","prac","","","","","","","","","","","","","","","","","","","",""
"587","","837556","SARL_v6tg11awsr","msl000061","freqPrac_resp","","","img/orange_2bandit_b.png","70","img/orange_2bandit_b.png","70","prac","","","","","","","","","","","","","","","","","","","",""
"null","","837712","SARL_v6tg11awsr","msl000061","fixation","","","img/fixation.png","null","","","prac","","","","","","","","","","","","","","","","","","","",""
"486","","838203","SARL_v6tg11awsr","msl000061","mixAttFreqPrac","","","img/orange_2bandit_b2.png","70","img/orange_2bandit_b2.png","70","prac","","","","","","","","","","","","","","","","","","","",""
"486","","838523","SARL_v6tg11awsr","msl000061","freqPrac_resp","","","img/orange_2bandit_b.png","70","img/orange_2bandit_b.png","70","prac","","","","","","","","","","","","","","","","","","","",""
"null","","838678","SARL_v6tg11awsr","msl000061","fixation","","","img/fixation.png","null","","","prac","","","","","","","","","","","","","","","","","","","",""
"555","","839238","SARL_v6tg11awsr","msl000061","mixAttInfreqPrac","","","img/green_2bandit_b2.png","68","img/green_2bandit_b2.png","68","prac","","","","","","","","","","","","","","","","","","","",""
"555","","839489","SARL_v6tg11awsr","msl000061","infreqPrac_resp","","","img/green_2bandit_b.png","68","img/orange_2bandit_b.png","68","prac","","","","","","","","","","","","","","","","","","","",""
"null","","839643","SARL_v6tg11awsr","msl000061","fixation","","","img/fixation.png","null","","","prac","","","","","","","","","","","","","","","","","","","",""
"557","","840206","SARL_v6tg11awsr","msl000061","mixRLPractice","","","img/black_2bandit_b2.png","75","img/black_2bandit_b2.png","","prac","","","","","","","","","","","","","","","","","","","",""
"null","","840961","SARL_v6tg11awsr","msl000061","feedback","","","img/boo_R_b.png","null","","na","prac","","","","","","","","","","","","","","","","","","","",""
"32563","","873529","SARL_v6tg11awsr","msl000061","","","","","","","","prac","","","","","","","","","","","","","","","","","","","",""
"352","","873884","SARL_v6tg11awsr","msl000061","freq","","","img/orange_2bandit_b2.png","70","","70","test","1","","","circle","square","1","1","1","1","1","","","","","","","","","",""
"null","","874338","SARL_v6tg11awsr","msl000061","freq_resp","","","img/orange_2bandit_b.png","70","img/orange_2bandit_b.png","70","test","","","","","","","","","1","","","","","","","","","","",""
"null","","874493","SARL_v6tg11awsr","msl000061","fixation","","","img/fixation.png","null","","","test","","","","","","","","","","","","","","","","","","","",""
"292","","874791","SARL_v6tg11awsr","msl000061","freq","","","img/orange_2bandit_b2.png","70","","70","test","1","","","circle","square","2","2","2","1","1","","","","","","","","","",""
"null","","875304","SARL_v6tg11awsr","msl000061","freq_resp","","","img/orange_2bandit_b.png","70","img/orange_2bandit_b.png","70","test","","","","","","","","","1","","","","","","","","","","",""
"null","","875460","SARL_v6tg11awsr","msl000061","fixation","","","img/fixation.png","null","","","test","","","","","","","","","","","","","","","","","","","",""
"436","","875900","SARL_v6tg11awsr","msl000061","freq","","","img/orange_2bandit_b2.png","70","","70","test","1","","","circle","square","3","3","3","1","1","","","","","","","","","",""
"null","","876271","SARL_v6tg11awsr","msl000061","freq_resp","","","img/orange_2bandit_b.png","70","img/orange_2bandit_b.png","70","test","","","","","","","","","1","","","","","","","","","","",""
"null","","876427","SARL_v6tg11awsr","msl000061","fixation","","","img/fixation.png","null","","","test","","","","","","","","","","","","","","","","","","","",""
"338","","876770","SARL_v6tg11awsr","msl000061","freq","","","img/orange_2bandit_b2.png","70","","70","test","1","","","circle","square","4","4","4","1","1","","","","","","","","","",""
"null","","877237","SARL_v6tg11awsr","msl000061","freq_resp","","","img/orange_2bandit_b.png","70","img/orange_2bandit_b.png","70","test","","","","","","","","","1","","","","","","","","","","",""
"null","","877393","SARL_v6tg11awsr","msl000061","fixation","","","img/fixation.png","null","","","test","","","","","","","","","","","","","","","","","","","",""
"372","","877769","SARL_v6tg11awsr","msl000061","freq","","","img/orange_2bandit_b2.png","70","","70","test","1","","","circle","square","5","5","5","1","1","","","","","","","","","",""
"null","","878202","SARL_v6tg11awsr","msl000061","freq_resp","","","img/orange_2bandit_b.png","70","img/orange_2bandit_b.png","70","test","","","","","","","","","1","","","","","","","","","","",""
"null","","878359","SARL_v6tg11awsr","msl000061","fixation","","","img/fixation.png","null","","","test","","","","","","","","","","","","","","","","","","","",""
"345","","878709","SARL_v6tg11awsr","msl000061","freq","","","img/orange_2bandit_b2.png","70","","70","test","1","","","circle","square","6","6","6","1","1","","","","","","","","","",""
"null","","879170","SARL_v6tg11awsr","msl000061","freq_resp","","","img/orange_2bandit_b.png","70","img/orange_2bandit_b.png","70","test","","","","","","","","","1","","","","","","","","","","",""
"null","","879326","SARL_v6tg11awsr","msl000061","fixation","","","img/fixation.png","null","","","test","","","","","","","","","","","","","","","","","","","",""
"330","","879661","SARL_v6tg11awsr","msl000061","infreq","","","img/green_2bandit_b2.png","70","","68","test","0","","","circle","square","7","7","7","1","0.8571428571428571","","","","","","","","","",""
"null","","880138","SARL_v6tg11awsr","msl000061","infreq_resp","","","img/green_2bandit_b.png","70","img/green_2bandit_b.png","68","test","","","","","","","","","1","","","","","","","","","","",""
"null","","880294","SARL_v6tg11awsr","msl000061","fixation","","","img/fixation.png","null","","","test","","","","","","","","","","","","","","","","","","","",""
"431","","880730","SARL_v6tg11awsr","msl000061","freq","","","img/orange_2bandit_b2.png","70","","70","test","1","","","circle","square","8","8","8","1","0.875","","","","","","","","","",""
"null","","881105","SARL_v6tg11awsr","msl000061","freq_resp","","","img/orange_2bandit_b.png","70","img/orange_2bandit_b.png","70","test","","","","","","","","","1","","","","","","","","","","",""
"null","","881260","SARL_v6tg11awsr","msl000061","fixation","","","img/fixation.png","null","","","test","","","","","","","","","","","","","","","","","","","",""
"355","","881620","SARL_v6tg11awsr","msl000061","freq","","","img/orange_2bandit_b2.png","70","","70","test","1","","","circle","square","9","9","9","1","0.8888888888888888","","","","","","","","","",""
"null","","882071","SARL_v6tg11awsr","msl000061","freq_resp","","","img/orange_2bandit_b.png","70","img/orange_2bandit_b.png","70","test","","","","","","","","","1","","","","","","","","","","",""
"null","","882227","SARL_v6tg11awsr","msl000061","fixation","","","img/fixation.png","null","","","test","","","","","","","","","","","","","","","","","","","",""
"294","","882527","SARL_v6tg11awsr","msl000061","freq","","","img/orange_2bandit_b2.png","70","","70","test","1","","","circle","square","10","10","10","1","0.9","","","","","","","","","",""
"null","","883039","SARL_v6tg11awsr","msl000061","freq_resp","","","img/orange_2bandit_b.png","70","img/orange_2bandit_b.png","70","test","","","","","","","","","1","","","","","","","","","","",""
"null","","883194","SARL_v6tg11awsr","msl000061","fixation","","","img/fixation.png","null","","","test","","","","","","","","","","","","","","","","","","","",""
"311","","883510","SARL_v6tg11awsr","msl000061","freq","","","img/orange_2bandit_b2.png","70","","70","test","1","","","circle","square","11","11","11","1","0.9090909090909091","","","","","","","","","",""
"null","","884005","SARL_v6tg11awsr","msl000061","freq_resp","","","img/orange_2bandit_b.png","70","img/orange_2bandit_b.png","70","test","","","","","","","","","1","","","","","","","","","","",""
"null","","884162","SARL_v6tg11awsr","msl000061","fixation","","","img/fixation.png","null","","","test","","","","","","","","","","","","","","","","","","","",""
"365","","884530","SARL_v6tg11awsr","msl000061","freq","","","img/orange_2bandit_b2.png","70","","70","test","1","","","circle","square","12","12","12","1","0.9166666666666666","","","","","","","","","",""
"null","","884972","SARL_v6tg11awsr","msl000061","freq_resp","","","img/orange_2bandit_b.png","70","img/orange_2bandit_b.png","70","test","","","","","","","","","1","","","","","","","","","","",""
"null","","885128","SARL_v6tg11awsr","msl000061","fixation","","","img/fixation.png","null","","","test","","","","","","","","","","","","","","","","","","","",""
"400","","885533","SARL_v6tg11awsr","msl000061","freq","","","img/orange_2bandit_b2.png","70","","70","test","1","","","circle","square","13","13","13","1","0.9230769230769231","","","","","","","","","",""
"null","","885938","SARL_v6tg11awsr","msl000061","freq_resp","","","img/orange_2bandit_b.png","70","img/orange_2bandit_b.png","70","test","","","","","","","","","1","","","","","","","","","","",""
"null","","886093","SARL_v6tg11awsr","msl000061","fixation","","","img/fixation.png","null","","","test","","","","","","","","","","","","","","","","","","","",""
"374","","886472","SARL_v6tg11awsr","msl000061","freq","","","img/orange_2bandit_b2.png","70","","70","test","1","","","circle","square","14","14","14","1","0.9285714285714286","","","","","","","","","",""
"null","","886904","SARL_v6tg11awsr","msl000061","freq_resp","","","img/orange_2bandit_b.png","70","img/orange_2bandit_b.png","70","test","","","","","","","","","1","","","","","","","","","","",""
"null","","887059","SARL_v6tg11awsr","msl000061","fixation","","","img/fixation.png","null","","","test","","","","","","","","","","","","","","","","","","","",""
"432","","887495","SARL_v6tg11awsr","msl000061","infreq","","","img/green_2bandit_b2.png","68","","68","test","1","","","circle","square","15","15","15","1","0.9333333333333333","","","","","","","","","",""
"null","","887869","SARL_v6tg11awsr","msl000061","infreq_resp","","","img/green_2bandit_b.png","68","img/green_2bandit_b.png","68","test","","","","","","","","","1","","","","","","","","","","",""
"null","","888025","SARL_v6tg11awsr","msl000061","fixation","","","img/fixation.png","null","","","test","","","","","","","","","","","","","","","","","","","",""
"369","","888399","SARL_v6tg11awsr","msl000061","freq","","","img/orange_2bandit_b2.png","70","","70","test","1","","","circle","square","16","16","16","1","0.9375","","","","","","","","","",""
"null","","888835","SARL_v6tg11awsr","msl000061","freq_resp","","","img/orange_2bandit_b.png","70","img/orange_2bandit_b.png","70","test","","","","","","","","","1","","","","","","","","","","",""
"null","","888991","SARL_v6tg11awsr","msl000061","fixation","","","img/fixation.png","null","","","test","","","","","","","","","","","","","","","","","","","",""
"327","","889322","SARL_v6tg11awsr","msl000061","freq","","","img/orange_2bandit_b2.png","70","","70","test","1","","","circle","square","17","17","17","1","0.9411764705882353","","","","","","","","","",""
"null","","889801","SARL_v6tg11awsr","msl000061","freq_resp","","","img/orange_2bandit_b.png","70","img/orange_2bandit_b.png","70","test","","","","","","","","","1","","","","","","","","","","",""
"null","","889957","SARL_v6tg11awsr","msl000061","fixation","","","img/fixation.png","null","","","test","","","","","","","","","","","","","","","","","","","",""
"314","","890275","SARL_v6tg11awsr","msl000061","freq","","","img/orange_2bandit_b2.png","70","","70","test","1","","","circle","square","18","18","18","1","0.9444444444444444","","","","","","","","","",""
"null","","890767","SARL_v6tg11awsr","msl000061","freq_resp","","","img/orange_2bandit_b.png","70","img/orange_2bandit_b.png","70","test","","","","","","","","","1","","","","","","","","","","",""
"null","","890923","SARL_v6tg11awsr","msl000061","fixation","","","img/fixation.png","null","","","test","","","","","","","","","","","","","","","","","","","",""
"250","","891178","SARL_v6tg11awsr","msl000061","freq","","","img/orange_2bandit_b2.png","70","","70","test","1","","","circle","square","19","19","19","1","0.9473684210526315","","","","","","","","","",""
"null","","891735","SARL_v6tg11awsr","msl000061","freq_resp","","","img/orange_2bandit_b.png","70","img/orange_2bandit_b.png","70","test","","","","","","","","","1","","","","","","","","","","",""
"null","","891890","SARL_v6tg11awsr","msl000061","fixation","","","img/fixation.png","null","","","test","","","","","","","","","","","","","","","","","","","",""
"237","","892133","SARL_v6tg11awsr","msl000061","freq","","","img/orange_2bandit_b2.png","70","","70","test","1","","","circle","square","20","20","20","1","0.95","","","","","","","","","",""
"null","","892701","SARL_v6tg11awsr","msl000061","freq_resp","","","img/orange_2bandit_b.png","70","img/orange_2bandit_b.png","70","test","","","","","","","","","1","","","","","","","","","","",""
"null","","892858","SARL_v6tg11awsr","msl000061","fixation","","","img/fixation.png","null","","","test","","","","","","","","","","","","","","","","","","","",""
"270","","893132","SARL_v6tg11awsr","msl000061","freq","","","img/orange_2bandit_b2.png","70","","70","test","1","","","circle","square","21","21","21","1","0.9523809523809523","","","","","","","","","",""
"null","","893667","SARL_v6tg11awsr","msl000061","freq_resp","","","img/orange_2bandit_b.png","70","img/orange_2bandit_b.png","70","test","","","","","","","","","1","","","","","","","","","","",""
"null","","893822","SARL_v6tg11awsr","msl000061","fixation","","","img/fixation.png","null","","","test","","","","","","","","","","","","","","","","","","","",""
"288","","894116","SARL_v6tg11awsr","msl000061","freq","","","img/orange_2bandit_b2.png","70","","70","test","1","","","circle","square","22","22","22","1","0.9545454545454546","","","","","","","","","",""
"null","","894632","SARL_v6tg11awsr","msl000061","freq_resp","","","img/orange_2bandit_b.png","70","img/orange_2bandit_b.png","70","test","","","","","","","","","1","","","","","","","","","","",""
"null","","894787","SARL_v6tg11awsr","msl000061","fixation","","","img/fixation.png","null","","","test","","","","","","","","","","","","","","","","","","","",""
"382","","895174","SARL_v6tg11awsr","msl000061","freq","","","img/orange_2bandit_b2.png","70","","70","test","1","","","circle","square","23","23","23","1","0.9565217391304348","","","","","","","","","",""
"null","","895599","SARL_v6tg11awsr","msl000061","freq_resp","","","img/orange_2bandit_b.png","70","img/orange_2bandit_b.png","70","test","","","","","","","","","1","","","","","","","","","","",""
"null","","895753","SARL_v6tg11awsr","msl000061","fixation","","","img/fixation.png","null","","","test","","","","","","","","","","","","","","","","","","","",""
"725","","896483","SARL_v6tg11awsr","msl000061","rl","","","img/black_2bandit_b2.png","74","","0","test","","","0","circle","square","24","","0","1","","74","0.8","0.2","0.9020074056712073","0.8","0.2","0.8","circle","1","0"
"null","","897239","SARL_v6tg11awsr","msl000061","feedback","","","img/boo_L_b.png","null","","na","test","","","","","","","","","1","","74","0.8","0.2","","","","0.8","","1",""
"469","","897713","SARL_v6tg11awsr","msl000061","freq","","","img/orange_2bandit_b2.png","70","","70","test","1","","","circle","square","25","24","1","2","0.9583333333333334","","","","","","","","","",""
"null","","898049","SARL_v6tg11awsr","msl000061","freq_resp","","","img/orange_2bandit_b.png","70","img/orange_2bandit_b.png","70","test","","","","","","","","","2","","","","","","","","","","",""
"null","","898207","SARL_v6tg11awsr","msl000061","fixation","","","img/fixation.png","null","","","test","","","","","","","","","","","","","","","","","","","",""
"309","","898522","SARL_v6tg11awsr","msl000061","freq","","","img/orange_2bandit_b2.png","70","","70","test","1","","","circle","square","26","25","2","2","0.96","","","","","","","","","",""
"null","","899018","SARL_v6tg11awsr","msl000061","freq_resp","","","img/orange_2bandit_b.png","70","img/orange_2bandit_b.png","70","test","","","","","","","","","2","","","","","","","","","","",""
"null","","899173","SARL_v6tg11awsr","msl000061","fixation","","","img/fixation.png","null","","","test","","","","","","","","","","","","","","","","","","","",""
"217","","899395","SARL_v6tg11awsr","msl000061","freq","","","img/orange_2bandit_b2.png","70","","70","test","1","","","circle","square","27","26","3","2","0.9615384615384616","","","","","","","","","",""
"null","","899983","SARL_v6tg11awsr","msl000061","freq_resp","","","img/orange_2bandit_b.png","70","img/orange_2bandit_b.png","70","test","","","","","","","","","2","","","","","","","","","","",""
"null","","900139","SARL_v6tg11awsr","msl000061","fixation","","","img/fixation.png","null","","","test","","","","","","","","","","","","","","","","","","","",""
"268","","900411","SARL_v6tg11awsr","msl000061","freq","","","img/orange_2bandit_b2.png","70","","70","test","1","","","circle","square","28","27","4","2","0.9629629629629629","","","","","","","","","",""
"null","","900948","SARL_v6tg11awsr","msl000061","freq_resp","","","img/orange_2bandit_b.png","70","img/orange_2bandit_b.png","70","test","","","","","","","","","2","","","","","","","","","","",""
"null","","901104","SARL_v6tg11awsr","msl000061","fixation","","","img/fixation.png","null","","","test","","","","","","","","","","","","","","","","","","","",""
"268","","901378","SARL_v6tg11awsr","msl000061","freq","","","img/orange_2bandit_b2.png","70","","70","test","1","","","circle","square","29","28","5","2","0.9642857142857143","","","","","","","","","",""
"null","","901915","SARL_v6tg11awsr","msl000061","freq_resp","","","img/orange_2bandit_b.png","70","img/orange_2bandit_b.png","70","test","","","","","","","","","2","","","","","","","","","","",""
"null","","902070","SARL_v6tg11awsr","msl000061","fixation","","","img/fixation.png","null","","","test","","","","","","","","","","","","","","","","","","","",""
"313","","902387","SARL_v6tg11awsr","msl000061","freq","","","img/orange_2bandit_b2.png","70","","70","test","1","","","circle","square","30","29","6","2","0.9655172413793104","","","","","","","","","",""
"null","","902879","SARL_v6tg11awsr","msl000061","freq_resp","","","img/orange_2bandit_b.png","70","img/orange_2bandit_b.png","70","test","","","","","","","","","2","","","","","","","","","","",""
"null","","903036","SARL_v6tg11awsr","msl000061","fixation","","","img/fixation.png","null","","","test","","","","","","","","","","","","","","","","","","","",""
"364","","903405","SARL_v6tg11awsr","msl000061","freq","","","img/orange_2bandit_b2.png","70","","70","test","1","","","circle","square","31","30","7","2","0.9666666666666667","","","","","","","","","",""
"null","","903848","SARL_v6tg11awsr","msl000061","freq_resp","","","img/orange_2bandit_b.png","70","img/orange_2bandit_b.png","70","test","","","","","","","","","2","","","","","","","","","","",""
"null","","904004","SARL_v6tg11awsr","msl000061","fixation","","","img/fixation.png","null","","","test","","","","","","","","","","","","","","","","","","","",""
"320","","904328","SARL_v6tg11awsr","msl000061","freq","","","img/orange_2bandit_b2.png","70","","70","test","1","","","circle","square","32","31","8","2","0.967741935483871","","","","","","","","","",""
"null","","904814","SARL_v6tg11awsr","msl000061","freq_resp","","","img/orange_2bandit_b.png","70","img/orange_2bandit_b.png","70","test","","","","","","","","","2","","","","","","","","","","",""
"null","","904968","SARL_v6tg11awsr","msl000061","fixation","","","img/fixation.png","null","","","test","","","","","","","","","","","","","","","","","","","",""
"353","","905327","SARL_v6tg11awsr","msl000061","freq","","","img/orange_2bandit_b2.png","70","","70","test","1","","","circle","square","33","32","9","2","0.96875","","","","","","","","","",""
"null","","905779","SARL_v6tg11awsr","msl000061","freq_resp","","","img/orange_2bandit_b.png","70","img/orange_2bandit_b.png","70","test","","","","","","","","","2","","","","","","","","","","",""
"null","","905935","SARL_v6tg11awsr","msl000061","fixation","","","img/fixation.png","null","","","test","","","","","","","","","","","","","","","","","","","",""
"757","","906696","SARL_v6tg11awsr","msl000061","infreq","","","img/green_2bandit_b2.png","68","","68","test","1","","","circle","square","34","33","10","2","0.9696969696969697","","","","","","","","","",""
"null","","906745","SARL_v6tg11awsr","msl000061","infreq_resp","","","img/green_2bandit_b.png","68","img/green_2bandit_b.png","68","test","","","","","","","","","2","","","","","","","","","","",""
"null","","906901","SARL_v6tg11awsr","msl000061","fixation","","","img/fixation.png","null","","","test","","","","","","","","","","","","","","","","","","","",""
"560","","907465","SARL_v6tg11awsr","msl000061","freq","","","img/orange_2bandit_b2.png","70","","70","test","1","","","circle","square","35","34","11","2","0.9705882352941176","","","","","","","","","",""
"null","","907711","SARL_v6tg11awsr","msl000061","freq_resp","","","img/orange_2bandit_b.png","70","img/orange_2bandit_b.png","70","test","","","","","","","","","2","","","","","","","","","","",""
"null","","907867","SARL_v6tg11awsr","msl000061","fixation","","","img/fixation.png","null","","","test","","","","","","","","","","","","","","","","","","","",""
"466","","908338","SARL_v6tg11awsr","msl000061","infreq","","","img/green_2bandit_b2.png","68","","68","test","1","","","circle","square","36","35","12","2","0.9714285714285714","","","","","","","","","",""
"null","","908679","SARL_v6tg11awsr","msl000061","infreq_resp","","","img/green_2bandit_b.png","68","img/green_2bandit_b.png","68","test","","","","","","","","","2","","","","","","","","","","",""
"null","","908836","SARL_v6tg11awsr","msl000061","fixation","","","img/fixation.png","null","","","test","","","","","","","","","","","","","","","","","","","",""
"346","","909186","SARL_v6tg11awsr","msl000061","freq","","","img/orange_2bandit_b2.png","70","","70","test","1","","","circle","square","37","36","13","2","0.9722222222222222","","","","","","","","","",""
"null","","909646","SARL_v6tg11awsr","msl000061","freq_resp","","","img/orange_2bandit_b.png","70","img/orange_2bandit_b.png","70","test","","","","","","","","","2","","","","","","","","","","",""
"null","","909800","SARL_v6tg11awsr","msl000061","fixation","","","img/fixation.png","null","","","test","","","","","","","","","","","","","","","","","","","",""
"313","","910120","SARL_v6tg11awsr","msl000061","freq","","","img/orange_2bandit_b2.png","70","","70","test","1","","","circle","square","38","37","14","2","0.972972972972973","","","","","","","","","",""
"null","","910613","SARL_v6tg11awsr","msl000061","freq_resp","","","img/orange_2bandit_b.png","70","img/orange_2bandit_b.png","70","test","","","","","","","","","2","","","","","","","","","","",""
"null","","910769","SARL_v6tg11awsr","msl000061","fixation","","","img/fixation.png","null","","","test","","","","","","","","","","","","","","","","","","","",""
"193","","910967","SARL_v6tg11awsr","msl000061","freq","","","img/orange_2bandit_b2.png","70","","70","test","1","","","circle","square","39","38","15","2","0.9736842105263158","","","","","","","","","",""
"null","","911580","SARL_v6tg11awsr","msl000061","freq_resp","","","img/orange_2bandit_b.png","70","img/orange_2bandit_b.png","70","test","","","","","","","","","2","","","","","","","","","","",""
"null","","911736","SARL_v6tg11awsr","msl000061","fixation","","","img/fixation.png","null","","","test","","","","","","","","","","","","","","","","","","","",""
"92","","911833","SARL_v6tg11awsr","msl000061","freq","","","img/orange_2bandit_b2.png","70","","70","test","1","","","circle","square","40","39","16","2","0.9743589743589743","","","","","","","","","",""
"null","","912546","SARL_v6tg11awsr","msl000061","freq_resp","","","img/orange_2bandit_b.png","70","img/orange_2bandit_b.png","70","test","","","","","","","","","2","","","","","","","","","","",""
"null","","912702","SARL_v6tg11awsr","msl000061","fixation","","","img/fixation.png","null","","","test","","","","","","","","","","","","","","","","","","","",""
"73","","912780","SARL_v6tg11awsr","msl000061","freq","","","img/orange_2bandit_b2.png","70","","70","test","1","","","circle","square","41","40","17","2","0.975","","","","","","","","","",""
"null","","913512","SARL_v6tg11awsr","msl000061","freq_resp","","","img/orange_2bandit_b.png","70","img/orange_2bandit_b.png","70","test","","","","","","","","","2","","","","","","","","","","",""
"null","","913668","SARL_v6tg11awsr","msl000061","fixation","","","img/fixation.png","null","","","test","","","","","","","","","","","","","","","","","","","",""
"210","","913883","SARL_v6tg11awsr","msl000061","freq","","","img/orange_2bandit_b2.png","70","","70","test","1","","","circle","square","42","41","18","2","0.975609756097561","","","","","","","","","",""
"null","","914479","SARL_v6tg11awsr","msl000061","freq_resp","","","img/orange_2bandit_b.png","70","img/orange_2bandit_b.png","70","test","","","","","","","","","2","","","","","","","","","","",""
"null","","914635","SARL_v6tg11awsr","msl000061","fixation","","","img/fixation.png","null","","","test","","","","","","","","","","","","","","","","","","","",""
"259","","914898","SARL_v6tg11awsr","msl000061","freq","","","img/orange_2bandit_b2.png","70","","70","test","1","","","circle","square","43","42","19","2","0.9761904761904762","","","","","","","","","",""
"null","","915443","SARL_v6tg11awsr","msl000061","freq_resp","","","img/orange_2bandit_b.png","70","img/orange_2bandit_b.png","70","test","","","","","","","","","2","","","","","","","","","","",""
"null","","915599","SARL_v6tg11awsr","msl000061","fixation","","","img/fixation.png","null","","","test","","","","","","","","","","","","","","","","","","","",""
"302","","915906","SARL_v6tg11awsr","msl000061","freq","","","img/orange_2bandit_b2.png","70","","70","test","1","","","circle","square","44","43","20","2","0.9767441860465116","","","","","","","","","",""
"null","","916408","SARL_v6tg11awsr","msl000061","freq_resp","","","img/orange_2bandit_b.png","70","img/orange_2bandit_b.png","70","test","","","","","","","","","2","","","","","","","","","","",""
"null","","916564","SARL_v6tg11awsr","msl000061","fixation","","","img/fixation.png","null","","","test","","","","","","","","","","","","","","","","","","","",""
"272","","916841","SARL_v6tg11awsr","msl000061","infreq","","","img/green_2bandit_b2.png","70","","68","test","0","","","circle","square","45","44","21","2","0.9545454545454546","","","","","","","","","",""
"null","","917375","SARL_v6tg11awsr","msl000061","infreq_resp","","","img/green_2bandit_b.png","70","img/green_2bandit_b.png","68","test","","","","","","","","","2","","","","","","","","","","",""
"null","","917531","SARL_v6tg11awsr","msl000061","fixation","","","img/fixation.png","null","","","test","","","","","","","","","","","","","","","","","","","",""
"298","","917833","SARL_v6tg11awsr","msl000061","freq","","","img/orange_2bandit_b2.png","70","","70","test","1","","","circle","square","46","45","22","2","0.9555555555555556","","","","","","","","","",""
"null","","918341","SARL_v6tg11awsr","msl000061","freq_resp","","","img/orange_2bandit_b.png","70","img/orange_2bandit_b.png","70","test","","","","","","","","","2","","","","","","","","","","",""
"null","","918497","SARL_v6tg11awsr","msl000061","fixation","","","img/fixation.png","null","","","test","","","","","","","","","","","","","","","","","","","",""
"747","","919248","SARL_v6tg11awsr","msl000061","rl","","","img/black_2bandit_b2.png","74","","0","test","","","1","circle","square","47","","0","2","","74","0.8","0.2","0.37826764600967766","0.8","0.2","0.8","circle","2","0"
"null","","920004","SARL_v6tg11awsr","msl000061","feedback","","","img/yay_L_b.png","null","","na","test","","","","","","","","","2","","74","0.8","0.2","","","","0.8","","2",""
"451","","920461","SARL_v6tg11awsr","msl000061","freq","","","img/orange_2bandit_b2.png","70","","70","test","1","","","circle","square","48","46","1","3","0.9565217391304348","","","","","","","","","",""
"null","","920815","SARL_v6tg11awsr","msl000061","freq_resp","","","img/orange_2bandit_b.png","70","img/orange_2bandit_b.png","70","test","","","","","","","","","3","","","","","","","","","","",""
"null","","920972","SARL_v6tg11awsr","msl000061","fixation","","","img/fixation.png","null","","","test","","","","","","","","","","","","","","","","","","","",""
"338","","921314","SARL_v6tg11awsr","msl000061","freq","","","img/orange_2bandit_b2.png","70","","70","test","1","","","circle","square","49","47","2","3","0.9574468085106383","","","","","","","","","",""
"null","","921782","SARL_v6tg11awsr","msl000061","freq_resp","","","img/orange_2bandit_b.png","70","img/orange_2bandit_b.png","70","test","","","","","","","","","3","","","","","","","","","","",""
"null","","921936","SARL_v6tg11awsr","msl000061","fixation","","","img/fixation.png","null","","","test","","","","","","","","","","","","","","","","","","","",""
"319","","922260","SARL_v6tg11awsr","msl000061","freq","","","img/orange_2bandit_b2.png","70","","70","test","1","","","circle","square","50","48","3","3","0.9583333333333334","","","","","","","","","",""
"null","","922746","SARL_v6tg11awsr","msl000061","freq_resp","","","img/orange_2bandit_b.png","70","img/orange_2bandit_b.png","70","test","","","","","","","","","3","","","","","","","","","","",""
"null","","922902","SARL_v6tg11awsr","msl000061","fixation","","","img/fixation.png","null","","","test","","","","","","","","","","","","","","","","","","","",""
"297","","923204","SARL_v6tg11awsr","msl000061","freq","","","img/orange_2bandit_b2.png","70","","70","test","1","","","circle","square","51","49","4","3","0.9591836734693877","","","","","","","","","",""
"null","","923713","SARL_v6tg11awsr","msl000061","freq_resp","","","img/orange_2bandit_b.png","70","img/orange_2bandit_b.png","70","test","","","","","","","","","3","","","","","","","","","","",""
"null","","923868","SARL_v6tg11awsr","msl000061","fixation","","","img/fixation.png","null","","","test","","","","","","","","","","","","","","","","","","","",""
"266","","924140","SARL_v6tg11awsr","msl000061","freq","","","img/orange_2bandit_b2.png","70","","70","test","1","","","circle","square","52","50","5","3","0.96","","","","","","","","","",""
"null","","924679","SARL_v6tg11awsr","msl000061","freq_resp","","","img/orange_2bandit_b.png","70","img/orange_2bandit_b.png","70","test","","","","","","","","","3","","","","","","","","","","",""
"null","","924835","SARL_v6tg11awsr","msl000061","fixation","","","img/fixation.png","null","","","test","","","","","","","","","","","","","","","","","","","",""
"262","","925102","SARL_v6tg11awsr","msl000061","freq","","","img/orange_2bandit_b2.png","70","","70","test","1","","","circle","square","53","51","6","3","0.9607843137254902","","","","","","","","","",""
"null","","925645","SARL_v6tg11awsr","msl000061","freq_resp","","","img/orange_2bandit_b.png","70","img/orange_2bandit_b.png","70","test","","","","","","","","","3","","","","","","","","","","",""
"null","","925800","SARL_v6tg11awsr","msl000061","fixation","","","img/fixation.png","null","","","test","","","","","","","","","","","","","","","","","","","",""
"214","","926020","SARL_v6tg11awsr","msl000061","freq","","","img/orange_2bandit_b2.png","70","","70","test","1","","","circle","square","54","52","7","3","0.9615384615384616","","","","","","","","","",""
"null","","926612","SARL_v6tg11awsr","msl000061","freq_resp","","","img/orange_2bandit_b.png","70","img/orange_2bandit_b.png","70","test","","","","","","","","","3","","","","","","","","","","",""
"null","","926768","SARL_v6tg11awsr","msl000061","fixation","","","img/fixation.png","null","","","test","","","","","","","","","","","","","","","","","","","",""
"240","","927013","SARL_v6tg11awsr","msl000061","freq","","","img/orange_2bandit_b2.png","70","","70","test","1","","","circle","square","55","53","8","3","0.9622641509433962","","","","","","","","","",""
"null","","927579","SARL_v6tg11awsr","msl000061","freq_resp","","","img/orange_2bandit_b.png","70","img/orange_2bandit_b.png","70","test","","","","","","","","","3","","","","","","","","","","",""
"null","","927735","SARL_v6tg11awsr","msl000061","fixation","","","img/fixation.png","null","","","test","","","","","","","","","","","","","","","","","","","",""
"279","","928018","SARL_v6tg11awsr","msl000061","freq","","","img/orange_2bandit_b2.png","70","","70","test","1","","","circle","square","56","54","9","3","0.9629629629629629","","","","","","","","","",""
"null","","928545","SARL_v6tg11awsr","msl000061","freq_resp","","","img/orange_2bandit_b.png","70","img/orange_2bandit_b.png","70","test","","","","","","","","","3","","","","","","","","","","",""
"null","","928701","SARL_v6tg11awsr","msl000061","fixation","","","img/fixation.png","null","","","test","","","","","","","","","","","","","","","","","","","",""
"284","","928990","SARL_v6tg11awsr","msl000061","freq","","","img/orange_2bandit_b2.png","70","","70","test","1","","","circle","square","57","55","10","3","0.9636363636363636","","","","","","","","","",""
"null","","929512","SARL_v6tg11awsr","msl000061","freq_resp","","","img/orange_2bandit_b.png","70","img/orange_2bandit_b.png","70","test","","","","","","","","","3","","","","","","","","","","",""
"null","","929668","SARL_v6tg11awsr","msl000061","fixation","","","img/fixation.png","null","","","test","","","","","","","","","","","","","","","","","","","",""
"305","","929978","SARL_v6tg11awsr","msl000061","freq","","","img/orange_2bandit_b2.png","70","","70","test","1","","","circle","square","58","56","11","3","0.9642857142857143","","","","","","","","","",""
"null","","930479","SARL_v6tg11awsr","msl000061","freq_resp","","","img/orange_2bandit_b.png","70","img/orange_2bandit_b.png","70","test","","","","","","","","","3","","","","","","","","","","",""
"null","","930634","SARL_v6tg11awsr","msl000061","fixation","","","img/fixation.png","null","","","test","","","","","","","","","","","","","","","","","","","",""
"340","","930979","SARL_v6tg11awsr","msl000061","freq","","","img/orange_2bandit_b2.png","70","","70","test","1","","","circle","square","59","57","12","3","0.9649122807017544","","","","","","","","","",""
"null","","931445","SARL_v6tg11awsr","msl000061","freq_resp","","","img/orange_2bandit_b.png","70","img/orange_2bandit_b.png","70","test","","","","","","","","","3","","","","","","","","","","",""
"null","","931602","SARL_v6tg11awsr","msl000061","fixation","","","img/fixation.png","null","","","test","","","","","","","","","","","","","","","","","","","",""
"319","","931926","SARL_v6tg11awsr","msl000061","freq","","","img/orange_2bandit_b2.png","70","","70","test","1","","","circle","square","60","58","13","3","0.9655172413793104","","","","","","","","","",""
"null","","932413","SARL_v6tg11awsr","msl000061","freq_resp","","","img/orange_2bandit_b.png","70","img/orange_2bandit_b.png","70","test","","","","","","","","","3","","","","","","","","","","",""
"null","","932569","SARL_v6tg11awsr","msl000061","fixation","","","img/fixation.png","null","","","test","","","","","","","","","","","","","","","","","","","",""
"322","","932896","SARL_v6tg11awsr","msl000061","freq","","","img/orange_2bandit_b2.png","70","","70","test","1","","","circle","square","61","59","14","3","0.9661016949152542","","","","","","","","","",""
"null","","933379","SARL_v6tg11awsr","msl000061","freq_resp","","","img/orange_2bandit_b.png","70","img/orange_2bandit_b.png","70","test","","","","","","","","","3","","","","","","","","","","",""
"null","","933536","SARL_v6tg11awsr","msl000061","fixation","","","img/fixation.png","null","","","test","","","","","","","","","","","","","","","","","","","",""
"458","","934000","SARL_v6tg11awsr","msl000061","infreq","","","img/green_2bandit_b2.png","68","","68","test","1","","","circle","square","62","60","15","3","0.9666666666666667","","","","","","","","","",""
"null","","934347","SARL_v6tg11awsr","msl000061","infreq_resp","","","img/green_2bandit_b.png","68","img/green_2bandit_b.png","68","test","","","","","","","","","3","","","","","","","","","","",""
"null","","934503","SARL_v6tg11awsr","msl000061","fixation","","","img/fixation.png","null","","","test","","","","","","","","","","","","","","","","","","","",""
"397","","934903","SARL_v6tg11awsr","msl000061","freq","","","img/orange_2bandit_b2.png","70","","70","test","1","","","circle","square","63","61","16","3","0.9672131147540983","","","","","","","","","",""
"null","","935311","SARL_v6tg11awsr","msl000061","freq_resp","","","img/orange_2bandit_b.png","70","img/orange_2bandit_b.png","70","test","","","","","","","","","3","","","","","","","","","","",""
"null","","935468","SARL_v6tg11awsr","msl000061","fixation","","","img/fixation.png","null","","","test","","","","","","","","","","","","","","","","","","","",""
"369","","935840","SARL_v6tg11awsr","msl000061","freq","","","img/orange_2bandit_b2.png","70","","70","test","1","","","circle","square","64","62","17","3","0.967741935483871","","","","","","","","","",""
"null","","936276","SARL_v6tg11awsr","msl000061","freq_resp","","","img/orange_2bandit_b.png","70","img/orange_2bandit_b.png","70","test","","","","","","","","","3","","","","","","","","","","",""
"null","","936431","SARL_v6tg11awsr","msl000061","fixation","","","img/fixation.png","null","","","test","","","","","","","","","","","","","","","","","","","",""
"534","","936969","SARL_v6tg11awsr","msl000061","infreq","","","img/green_2bandit_b2.png","70","","68","test","0","","","circle","square","65","63","18","3","0.9523809523809523","","","","","","","","","",""
"null","","937241","SARL_v6tg11awsr","msl000061","infreq_resp","","","img/green_2bandit_b.png","70","img/green_2bandit_b.png","68","test","","","","","","","","","3","","","","","","","","","","",""
"null","","937397","SARL_v6tg11awsr","msl000061","fixation","","","img/fixation.png","null","","","test","","","","","","","","","","","","","","","","","","","",""
"381","","937783","SARL_v6tg11awsr","msl000061","freq","","","img/orange_2bandit_b2.png","70","","70","test","1","","","circle","square","66","64","19","3","0.953125","","","","","","","","","",""
"null","","938207","SARL_v6tg11awsr","msl000061","freq_resp","","","img/orange_2bandit_b.png","70","img/orange_2bandit_b.png","70","test","","","","","","","","","3","","","","","","","","","","",""
"null","","938364","SARL_v6tg11awsr","msl000061","fixation","","","img/fixation.png","null","","","test","","","","","","","","","","","","","","","","","","","",""
"284","","938651","SARL_v6tg11awsr","msl000061","freq","","","img/orange_2bandit_b2.png","70","","70","test","1","","","circle","square","67","65","20","3","0.9538461538461539","","","","","","","","","",""
"null","","939173","SARL_v6tg11awsr","msl000061","freq_resp","","","img/orange_2bandit_b.png","70","img/orange_2bandit_b.png","70","test","","","","","","","","","3","","","","","","","","","","",""
"null","","939327","SARL_v6tg11awsr","msl000061","fixation","","","img/fixation.png","null","","","test","","","","","","","","","","","","","","","","","","","",""
"337","","939670","SARL_v6tg11awsr","msl000061","freq","","","img/orange_2bandit_b2.png","70","","70","test","1","","","circle","square","68","66","21","3","0.9545454545454546","","","","","","","","","",""
"null","","940138","SARL_v6tg11awsr","msl000061","freq_resp","","","img/orange_2bandit_b.png","70","img/orange_2bandit_b.png","70","test","","","","","","","","","3","","","","","","","","","","",""
"null","","940293","SARL_v6tg11awsr","msl000061","fixation","","","img/fixation.png","null","","","test","","","","","","","","","","","","","","","","","","","",""
"372","","940669","SARL_v6tg11awsr","msl000061","freq","","","img/orange_2bandit_b2.png","70","","70","test","1","","","circle","square","69","67","22","3","0.9552238805970149","","","","","","","","","",""
"null","","941103","SARL_v6tg11awsr","msl000061","freq_resp","","","img/orange_2bandit_b.png","70","img/orange_2bandit_b.png","70","test","","","","","","","","","3","","","","","","","","","","",""
"null","","941259","SARL_v6tg11awsr","msl000061","fixation","","","img/fixation.png","null","","","test","","","","","","","","","","","","","","","","","","","",""
"300","","941564","SARL_v6tg11awsr","msl000061","freq","","","img/orange_2bandit_b2.png","70","","70","test","1","","","circle","square","70","68","23","3","0.9558823529411765","","","","","","","","","",""
"null","","942068","SARL_v6tg11awsr","msl000061","freq_resp","","","img/orange_2bandit_b.png","70","img/orange_2bandit_b.png","70","test","","","","","","","","","3","","","","","","","","","","",""
"null","","942224","SARL_v6tg11awsr","msl000061","fixation","","","img/fixation.png","null","","","test","","","","","","","","","","","","","","","","","","","",""
"217","","942445","SARL_v6tg11awsr","msl000061","freq","","","img/orange_2bandit_b2.png","70","","70","test","1","","","circle","square","71","69","24","3","0.9565217391304348","","","","","","","","","",""
"null","","943035","SARL_v6tg11awsr","msl000061","freq_resp","","","img/orange_2bandit_b.png","70","img/orange_2bandit_b.png","70","test","","","","","","","","","3","","","","","","","","","","",""
"null","","943190","SARL_v6tg11awsr","msl000061","fixation","","","img/fixation.png","null","","","test","","","","","","","","","","","","","","","","","","","",""
"200","","943394","SARL_v6tg11awsr","msl000061","freq","","","img/orange_2bandit_b2.png","70","","70","test","1","","","circle","square","72","70","25","3","0.9571428571428572","","","","","","","","","",""
"null","","944000","SARL_v6tg11awsr","msl000061","freq_resp","","","img/orange_2bandit_b.png","70","img/orange_2bandit_b.png","70","test","","","","","","","","","3","","","","","","","","","","",""
"null","","944155","SARL_v6tg11awsr","msl000061","fixation","","","img/fixation.png","null","","","test","","","","","","","","","","","","","","","","","","","",""
"283","","944443","SARL_v6tg11awsr","msl000061","freq","","","img/orange_2bandit_b2.png","70","","70","test","1","","","circle","square","73","71","26","3","0.9577464788732394","","","","","","","","","",""
"null","","944965","SARL_v6tg11awsr","msl000061","freq_resp","","","img/orange_2bandit_b.png","70","img/orange_2bandit_b.png","70","test","","","","","","","","","3","","","","","","","","","","",""
"null","","945121","SARL_v6tg11awsr","msl000061","fixation","","","img/fixation.png","null","","","test","","","","","","","","","","","","","","","","","","","",""
"255","","945381","SARL_v6tg11awsr","msl000061","freq","","","img/orange_2bandit_b2.png","70","","70","test","1","","","circle","square","74","72","27","3","0.9583333333333334","","","","","","","","","",""
"null","","945932","SARL_v6tg11awsr","msl000061","freq_resp","","","img/orange_2bandit_b.png","70","img/orange_2bandit_b.png","70","test","","","","","","","","","3","","","","","","","","","","",""
"null","","946087","SARL_v6tg11awsr","msl000061","fixation","","","img/fixation.png","null","","","test","","","","","","","","","","","","","","","","","","","",""
"298","","946391","SARL_v6tg11awsr","msl000061","freq","","","img/orange_2bandit_b2.png","70","","70","test","1","","","circle","square","75","73","28","3","0.958904109589041","","","","","","","","","",""
"null","","946898","SARL_v6tg11awsr","msl000061","freq_resp","","","img/orange_2bandit_b.png","70","img/orange_2bandit_b.png","70","test","","","","","","","","","3","","","","","","","","","","",""
"null","","947054","SARL_v6tg11awsr","msl000061","fixation","","","img/fixation.png","null","","","test","","","","","","","","","","","","","","","","","","","",""
"205","","947264","SARL_v6tg11awsr","msl000061","infreq","","","img/green_2bandit_b2.png","70","","68","test","0","","","circle","square","76","74","29","3","0.9459459459459459","","","","","","","","","",""
"null","","947864","SARL_v6tg11awsr","msl000061","infreq_resp","","","img/green_2bandit_b.png","70","img/green_2bandit_b.png","68","test","","","","","","","","","3","","","","","","","","","","",""
"null","","948019","SARL_v6tg11awsr","msl000061","fixation","","","img/fixation.png","null","","","test","","","","","","","","","","","","","","","","","","","",""
"641","","948664","SARL_v6tg11awsr","msl000061","freq","","","img/orange_2bandit_b2.png","70","","70","test","1","","","circle","square","77","75","30","3","0.9466666666666667","","","","","","","","","",""
"null","","948829","SARL_v6tg11awsr","msl000061","freq_resp","","","img/orange_2bandit_b.png","70","img/orange_2bandit_b.png","70","test","","","","","","","","","3","","","","","","","","","","",""
"null","","948984","SARL_v6tg11awsr","msl000061","fixation","","","img/fixation.png","null","","","test","","","","","","","","","","","","","","","","","","","",""
"597","","949587","SARL_v6tg11awsr","msl000061","rl","","","img/black_2bandit_b2.png","74","","0","test","","","0","circle","square","78","","0","3","","74","0.8","0.2","0.9376635943456928","0.8","0.2","0.8","circle","3","0"
"null","","950343","SARL_v6tg11awsr","msl000061","feedback","","","img/boo_L_b.png","null","","na","test","","","","","","","","","3","","74","0.8","0.2","","","","0.8","","3",""
"524","","950872","SARL_v6tg11awsr","msl000061","freq","","","img/orange_2bandit_b2.png","70","","70","test","1","","","circle","square","79","76","1","4","0.9473684210526315","","","","","","","","","",""
"null","","951153","SARL_v6tg11awsr","msl000061","freq_resp","","","img/orange_2bandit_b.png","70","img/orange_2bandit_b.png","70","test","","","","","","","","","4","","","","","","","","","","",""
"null","","951309","SARL_v6tg11awsr","msl000061","fixation","","","img/fixation.png","null","","","test","","","","","","","","","","","","","","","","","","","",""
"475","","951790","SARL_v6tg11awsr","msl000061","freq","","","img/orange_2bandit_b2.png","70","","70","test","1","","","circle","square","80","77","2","4","0.948051948051948","","","","","","","","","",""
"null","","952121","SARL_v6tg11awsr","msl000061","freq_resp","","","img/orange_2bandit_b.png","70","img/orange_2bandit_b.png","70","test","","","","","","","","","4","","","","","","","","","","",""
"null","","952278","SARL_v6tg11awsr","msl000061","fixation","","","img/fixation.png","null","","","test","","","","","","","","","","","","","","","","","","","",""
"393","","952676","SARL_v6tg11awsr","msl000061","freq","","","img/orange_2bandit_b2.png","70","","70","test","1","","","circle","square","81","78","3","4","0.9487179487179487","","","","","","","","","",""
"null","","953089","SARL_v6tg11awsr","msl000061","freq_resp","","","img/orange_2bandit_b.png","70","img/orange_2bandit_b.png","70","test","","","","","","","","","4","","","","","","","","","","",""
"null","","953244","SARL_v6tg11awsr","msl000061","fixation","","","img/fixation.png","null","","","test","","","","","","","","","","","","","","","","","","","",""
"295","","953544","SARL_v6tg11awsr","msl000061","freq","","","img/orange_2bandit_b2.png","70","","70","test","1","","","circle","square","82","79","4","4","0.9493670886075949","","","","","","","","","",""
"null","","954054","SARL_v6tg11awsr","msl000061","freq_resp","","","img/orange_2bandit_b.png","70","img/orange_2bandit_b.png","70","test","","","","","","","","","4","","","","","","","","","","",""
"null","","954210","SARL_v6tg11awsr","msl000061","fixation","","","img/fixation.png","null","","","test","","","","","","","","","","","","","","","","","","","",""
"281","","954496","SARL_v6tg11awsr","msl000061","freq","","","img/orange_2bandit_b2.png","70","","70","test","1","","","circle","square","83","80","5","4","0.95","","","","","","","","","",""
"null","","955021","SARL_v6tg11awsr","msl000061","freq_resp","","","img/orange_2bandit_b.png","70","img/orange_2bandit_b.png","70","test","","","","","","","","","4","","","","","","","","","","",""
"null","","955176","SARL_v6tg11awsr","msl000061","fixation","","","img/fixation.png","null","","","test","","","","","","","","","","","","","","","","","","","",""
"240","","955421","SARL_v6tg11awsr","msl000061","freq","","","img/orange_2bandit_b2.png","70","","70","test","1","","","circle","square","84","81","6","4","0.9506172839506173","","","","","","","","","",""
"null","","955987","SARL_v6tg11awsr","msl000061","freq_resp","","","img/orange_2bandit_b.png","70","img/orange_2bandit_b.png","70","test","","","","","","","","","4","","","","","","","","","","",""
"null","","956142","SARL_v6tg11awsr","msl000061","fixation","","","img/fixation.png","null","","","test","","","","","","","","","","","","","","","","","","","",""
"255","","956402","SARL_v6tg11awsr","msl000061","infreq","","","img/green_2bandit_b2.png","70","","68","test","0","","","circle","square","85","82","7","4","0.9390243902439024","","","","","","","","","",""
"null","","956954","SARL_v6tg11awsr","msl000061","infreq_resp","","","img/green_2bandit_b.png","70","img/green_2bandit_b.png","68","test","","","","","","","","","4","","","","","","","","","","",""
"null","","957110","SARL_v6tg11awsr","msl000061","fixation","","","img/fixation.png","null","","","test","","","","","","","","","","","","","","","","","","","",""
"578","","957693","SARL_v6tg11awsr","msl000061","freq","","","img/orange_2bandit_b2.png","70","","70","test","1","","","circle","square","86","83","8","4","0.9397590361445783","","","","","","","","","",""
"null","","957920","SARL_v6tg11awsr","msl000061","freq_resp","","","img/orange_2bandit_b.png","70","img/orange_2bandit_b.png","70","test","","","","","","","","","4","","","","","","","","","","",""
"null","","958075","SARL_v6tg11awsr","msl000061","fixation","","","img/fixation.png","null","","","test","","","","","","","","","","","","","","","","","","","",""
"652","","958731","SARL_v6tg11awsr","msl000061","freq","","","img/orange_2bandit_b2.png","70","","70","test","1","","","circle","square","87","84","9","4","0.9404761904761905","","","","","","","","","",""
"null","","958884","SARL_v6tg11awsr","msl000061","freq_resp","","","img/orange_2bandit_b.png","70","img/orange_2bandit_b.png","70","test","","","","","","","","","4","","","","","","","","","","",""
"null","","959040","SARL_v6tg11awsr","msl000061","fixation","","","img/fixation.png","null","","","test","","","","","","","","","","","","","","","","","","","",""
"675","","959719","SARL_v6tg11awsr","msl000061","freq","","","img/orange_2bandit_b2.png","70","","70","test","1","","","circle","square","88","85","10","4","0.9411764705882353","","","","","","","","","",""
"null","","959850","SARL_v6tg11awsr","msl000061","freq_resp","","","img/orange_2bandit_b.png","70","img/orange_2bandit_b.png","70","test","","","","","","","","","4","","","","","","","","","","",""
"null","","960006","SARL_v6tg11awsr","msl000061","fixation","","","img/fixation.png","null","","","test","","","","","","","","","","","","","","","","","","","",""
"503","","960514","SARL_v6tg11awsr","msl000061","freq","","","img/orange_2bandit_b2.png","70","","70","test","1","","","circle","square","89","86","11","4","0.9418604651162791","","","","","","","","","",""
"null","","960817","SARL_v6tg11awsr","msl000061","freq_resp","","","img/orange_2bandit_b.png","70","img/orange_2bandit_b.png","70","test","","","","","","","","","4","","","","","","","","","","",""
"null","","960971","SARL_v6tg11awsr","msl000061","fixation","","","img/fixation.png","null","","","test","","","","","","","","","","","","","","","","","","","",""
"339","","961316","SARL_v6tg11awsr","msl000061","freq","","","img/orange_2bandit_b2.png","70","","70","test","1","","","circle","square","90","87","12","4","0.9425287356321839","","","","","","","","","",""
"null","","961783","SARL_v6tg11awsr","msl000061","freq_resp","","","img/orange_2bandit_b.png","70","img/orange_2bandit_b.png","70","test","","","","","","","","","4","","","","","","","","","","",""
"null","","961939","SARL_v6tg11awsr","msl000061","fixation","","","img/fixation.png","null","","","test","","","","","","","","","","","","","","","","","","","",""
"378","","962320","SARL_v6tg11awsr","msl000061","freq","","","img/orange_2bandit_b2.png","70","","70","test","1","","","circle","square","91","88","13","4","0.9431818181818182","","","","","","","","","",""
"null","","962748","SARL_v6tg11awsr","msl000061","freq_resp","","","img/orange_2bandit_b.png","70","img/orange_2bandit_b.png","70","test","","","","","","","","","4","","","","","","","","","","",""
"null","","962903","SARL_v6tg11awsr","msl000061","fixation","","","img/fixation.png","null","","","test","","","","","","","","","","","","","","","","","","","",""
"421","","963329","SARL_v6tg11awsr","msl000061","freq","","","img/orange_2bandit_b2.png","70","","70","test","1","","","circle","square","92","89","14","4","0.9438202247191011","","","","","","","","","",""
"null","","963714","SARL_v6tg11awsr","msl000061","freq_resp","","","img/orange_2bandit_b.png","70","img/orange_2bandit_b.png","70","test","","","","","","","","","4","","","","","","","","","","",""
"null","","963869","SARL_v6tg11awsr","msl000061","fixation","","","img/fixation.png","null","","","test","","","","","","","","","","","","","","","","","","","",""
"310","","964183","SARL_v6tg11awsr","msl000061","freq","","","img/orange_2bandit_b2.png","70","","70","test","1","","","circle","square","93","90","15","4","0.9444444444444444","","","","","","","","","",""
"null","","964679","SARL_v6tg11awsr","msl000061","freq_resp","","","img/orange_2bandit_b.png","70","img/orange_2bandit_b.png","70","test","","","","","","","","","4","","","","","","","","","","",""
"null","","964835","SARL_v6tg11awsr","msl000061","fixation","","","img/fixation.png","null","","","test","","","","","","","","","","","","","","","","","","","",""
"335","","965176","SARL_v6tg11awsr","msl000061","freq","","","img/orange_2bandit_b2.png","70","","70","test","1","","","circle","square","94","91","16","4","0.945054945054945","","","","","","","","","",""
"null","","965646","SARL_v6tg11awsr","msl000061","freq_resp","","","img/orange_2bandit_b.png","70","img/orange_2bandit_b.png","70","test","","","","","","","","","4","","","","","","","","","","",""
"null","","965802","SARL_v6tg11awsr","msl000061","fixation","","","img/fixation.png","null","","","test","","","","","","","","","","","","","","","","","","","",""
"530","","966336","SARL_v6tg11awsr","msl000061","freq","","","img/orange_2bandit_b2.png","70","","70","test","1","","","circle","square","95","92","17","4","0.9456521739130435","","","","","","","","","",""
"null","","966612","SARL_v6tg11awsr","msl000061","freq_resp","","","img/orange_2bandit_b.png","70","img/orange_2bandit_b.png","70","test","","","","","","","","","4","","","","","","","","","","",""
"null","","966767","SARL_v6tg11awsr","msl000061","fixation","","","img/fixation.png","null","","","test","","","","","","","","","","","","","","","","","","","",""
"402","","967173","SARL_v6tg11awsr","msl000061","freq","","","img/orange_2bandit_b2.png","70","","70","test","1","","","circle","square","96","93","18","4","0.946236559139785","","","","","","","","","",""
"null","","967578","SARL_v6tg11awsr","msl000061","freq_resp","","","img/orange_2bandit_b.png","70","img/orange_2bandit_b.png","70","test","","","","","","","","","4","","","","","","","","","","",""
"null","","967734","SARL_v6tg11awsr","msl000061","fixation","","","img/fixation.png","null","","","test","","","","","","","","","","","","","","","","","","","",""
"474","","968213","SARL_v6tg11awsr","msl000061","freq","","","img/orange_2bandit_b2.png","70","","70","test","1","","","circle","square","97","94","19","4","0.9468085106382979","","","","","","","","","",""
"null","","968545","SARL_v6tg11awsr","msl000061","freq_resp","","","img/orange_2bandit_b.png","70","img/orange_2bandit_b.png","70","test","","","","","","","","","4","","","","","","","","","","",""
"null","","968701","SARL_v6tg11awsr","msl000061","fixation","","","img/fixation.png","null","","","test","","","","","","","","","","","","","","","","","","","",""
"465","","969171","SARL_v6tg11awsr","msl000061","infreq","","","img/green_2bandit_b2.png","68","","68","test","1","","","circle","square","98","95","20","4","0.9473684210526315","","","","","","","","","",""
"null","","969512","SARL_v6tg11awsr","msl000061","infreq_resp","","","img/green_2bandit_b.png","68","img/green_2bandit_b.png","68","test","","","","","","","","","4","","","","","","","","","","",""
"null","","969668","SARL_v6tg11awsr","msl000061","fixation","","","img/fixation.png","null","","","test","","","","","","","","","","","","","","","","","","","",""
"456","","970130","SARL_v6tg11awsr","msl000061","freq","","","img/orange_2bandit_b2.png","70","","70","test","1","","","circle","square","99","96","21","4","0.9479166666666666","","","","","","","","","",""
"null","","970480","SARL_v6tg11awsr","msl000061","freq_resp","","","img/orange_2bandit_b.png","70","img/orange_2bandit_b.png","70","test","","","","","","","","","4","","","","","","","","","","",""
"null","","970636","SARL_v6tg11awsr","msl000061","fixation","","","img/fixation.png","null","","","test","","","","","","","","","","","","","","","","","","","",""
"679","","971320","SARL_v6tg11awsr","msl000061","rl","","","img/black_2bandit_b2.png","74","","0","test","","","1","circle","square","100","","0","4","","74","0.8","0.2","0.5615744242702908","0.8","0.2","0.8","circle","4","0"
"null","","972075","SARL_v6tg11awsr","msl000061","feedback","","","img/yay_L_b.png","null","","na","test","","","","","","","","","4","","74","0.8","0.2","","","","0.8","","4",""
"353","","972435","SARL_v6tg11awsr","msl000061","freq","","","img/orange_2bandit_b2.png","70","","70","test","1","","","circle","square","101","97","1","5","0.9484536082474226","","","","","","","","","",""
"null","","972886","SARL_v6tg11awsr","msl000061","freq_resp","","","img/orange_2bandit_b.png","70","img/orange_2bandit_b.png","70","test","","","","","","","","","5","","","","","","","","","","",""
"null","","973042","SARL_v6tg11awsr","msl000061","fixation","","","img/fixation.png","null","","","test","","","","","","","","","","","","","","","","","","","",""
"330","","973376","SARL_v6tg11awsr","msl000061","freq","","","img/orange_2bandit_b2.png","70","","70","test","1","","","circle","square","102","98","2","5","0.9489795918367347","","","","","","","","","",""
"null","","973852","SARL_v6tg11awsr","msl000061","freq_resp","","","img/orange_2bandit_b.png","70","img/orange_2bandit_b.png","70","test","","","","","","","","","5","","","","","","","","","","",""
"null","","974008","SARL_v6tg11awsr","msl000061","fixation","","","img/fixation.png","null","","","test","","","","","","","","","","","","","","","","","","","",""
"372","","974385","SARL_v6tg11awsr","msl000061","freq","","","img/orange_2bandit_b2.png","70","","70","test","1","","","circle","square","103","99","3","5","0.9494949494949495","","","","","","","","","",""
"null","","974819","SARL_v6tg11awsr","msl000061","freq_resp","","","img/orange_2bandit_b.png","70","img/orange_2bandit_b.png","70","test","","","","","","","","","5","","","","","","","","","","",""
"null","","974976","SARL_v6tg11awsr","msl000061","fixation","","","img/fixation.png","null","","","test","","","","","","","","","","","","","","","","","","","",""
"465","","975445","SARL_v6tg11awsr","msl000061","infreq","","","img/green_2bandit_b2.png","68","","68","test","1","","","circle","square","104","100","4","5","0.95","","","","","","","","","",""
"null","","975786","SARL_v6tg11awsr","msl000061","infreq_resp","","","img/green_2bandit_b.png","68","img/green_2bandit_b.png","68","test","","","","","","","","","5","","","","","","","","","","",""
"null","","975942","SARL_v6tg11awsr","msl000061","fixation","","","img/fixation.png","null","","","test","","","","","","","","","","","","","","","","","","","",""
"408","","976356","SARL_v6tg11awsr","msl000061","freq","","","img/orange_2bandit_b2.png","70","","70","test","1","","","circle","square","105","101","5","5","0.9504950495049505","","","","","","","","","",""
"null","","976753","SARL_v6tg11awsr","msl000061","freq_resp","","","img/orange_2bandit_b.png","70","img/orange_2bandit_b.png","70","test","","","","","","","","","5","","","","","","","","","","",""
"null","","976910","SARL_v6tg11awsr","msl000061","fixation","","","img/fixation.png","null","","","test","","","","","","","","","","","","","","","","","","","",""
"432","","977347","SARL_v6tg11awsr","msl000061","freq","","","img/orange_2bandit_b2.png","70","","70","test","1","","","circle","square","106","102","6","5","0.9509803921568627","","","","","","","","","",""
"null","","977720","SARL_v6tg11awsr","msl000061","freq_resp","","","img/orange_2bandit_b.png","70","img/orange_2bandit_b.png","70","test","","","","","","","","","5","","","","","","","","","","",""
"null","","977876","SARL_v6tg11awsr","msl000061","fixation","","","img/fixation.png","null","","","test","","","","","","","","","","","","","","","","","","","",""
"379","","978259","SARL_v6tg11awsr","msl000061","freq","","","img/orange_2bandit_b2.png","70","","70","test","1","","","circle","square","107","103","7","5","0.9514563106796117","","","","","","","","","",""
"null","","978685","SARL_v6tg11awsr","msl000061","freq_resp","","","img/orange_2bandit_b.png","70","img/orange_2bandit_b.png","70","test","","","","","","","","","5","","","","","","","","","","",""
"null","","978841","SARL_v6tg11awsr","msl000061","fixation","","","img/fixation.png","null","","","test","","","","","","","","","","","","","","","","","","","",""
"344","","979189","SARL_v6tg11awsr","msl000061","freq","","","img/orange_2bandit_b2.png","70","","70","test","1","","","circle","square","108","104","8","5","0.9519230769230769","","","","","","","","","",""
"null","","979651","SARL_v6tg11awsr","msl000061","freq_resp","","","img/orange_2bandit_b.png","70","img/orange_2bandit_b.png","70","test","","","","","","","","","5","","","","","","","","","","",""
"null","","979808","SARL_v6tg11awsr","msl000061","fixation","","","img/fixation.png","null","","","test","","","","","","","","","","","","","","","","","","","",""
"325","","980136","SARL_v6tg11awsr","msl000061","freq","","","img/orange_2bandit_b2.png","70","","70","test","1","","","circle","square","109","105","9","5","0.9523809523809523","","","","","","","","","",""
"null","","980616","SARL_v6tg11awsr","msl000061","freq_resp","","","img/orange_2bandit_b.png","70","img/orange_2bandit_b.png","70","test","","","","","","","","","5","","","","","","","","","","",""
"null","","980770","SARL_v6tg11awsr","msl000061","fixation","","","img/fixation.png","null","","","test","","","","","","","","","","","","","","","","","","","",""
"316","","981092","SARL_v6tg11awsr","msl000061","freq","","","img/orange_2bandit_b2.png","70","","70","test","1","","","circle","square","110","106","10","5","0.9528301886792453","","","","","","","","","",""
"null","","981582","SARL_v6tg11awsr","msl000061","freq_resp","","","img/orange_2bandit_b.png","70","img/orange_2bandit_b.png","70","test","","","","","","","","","5","","","","","","","","","","",""
"null","","981737","SARL_v6tg11awsr","msl000061","fixation","","","img/fixation.png","null","","","test","","","","","","","","","","","","","","","","","","","",""
"292","","982035","SARL_v6tg11awsr","msl000061","freq","","","img/orange_2bandit_b2.png","70","","70","test","1","","","circle","square","111","107","11","5","0.9532710280373832","","","","","","","","","",""
"null","","982549","SARL_v6tg11awsr","msl000061","freq_resp","","","img/orange_2bandit_b.png","70","img/orange_2bandit_b.png","70","test","","","","","","","","","5","","","","","","","","","","",""
"null","","982703","SARL_v6tg11awsr","msl000061","fixation","","","img/fixation.png","null","","","test","","","","","","","","","","","","","","","","","","","",""
"304","","983013","SARL_v6tg11awsr","msl000061","freq","","","img/orange_2bandit_b2.png","70","","70","test","1","","","circle","square","112","108","12","5","0.9537037037037037","","","","","","","","","",""
"null","","983515","SARL_v6tg11awsr","msl000061","freq_resp","","","img/orange_2bandit_b.png","70","img/orange_2bandit_b.png","70","test","","","","","","","","","5","","","","","","","","","","",""
"null","","983670","SARL_v6tg11awsr","msl000061","fixation","","","img/fixation.png","null","","","test","","","","","","","","","","","","","","","","","","","",""
"306","","983981","SARL_v6tg11awsr","msl000061","freq","","","img/orange_2bandit_b2.png","70","","70","test","1","","","circle","square","113","109","13","5","0.9541284403669725","","","","","","","","","",""
"null","","984482","SARL_v6tg11awsr","msl000061","freq_resp","","","img/orange_2bandit_b.png","70","img/orange_2bandit_b.png","70","test","","","","","","","","","5","","","","","","","","","","",""
"null","","984638","SARL_v6tg11awsr","msl000061","fixation","","","img/fixation.png","null","","","test","","","","","","","","","","","","","","","","","","","",""
"374","","985015","SARL_v6tg11awsr","msl000061","freq","","","img/orange_2bandit_b2.png","70","","70","test","1","","","circle","square","114","110","14","5","0.9545454545454546","","","","","","","","","",""
"null","","985447","SARL_v6tg11awsr","msl000061","freq_resp","","","img/orange_2bandit_b.png","70","img/orange_2bandit_b.png","70","test","","","","","","","","","5","","","","","","","","","","",""
"null","","985603","SARL_v6tg11awsr","msl000061","fixation","","","img/fixation.png","null","","","test","","","","","","","","","","","","","","","","","","","",""
"320","","985928","SARL_v6tg11awsr","msl000061","freq","","","img/orange_2bandit_b2.png","70","","70","test","1","","","circle","square","115","111","15","5","0.954954954954955","","","","","","","","","",""
"null","","986414","SARL_v6tg11awsr","msl000061","freq_resp","","","img/orange_2bandit_b.png","70","img/orange_2bandit_b.png","70","test","","","","","","","","","5","","","","","","","","","","",""
"null","","986569","SARL_v6tg11awsr","msl000061","fixation","","","img/fixation.png","null","","","test","","","","","","","","","","","","","","","","","","","",""
"342","","986918","SARL_v6tg11awsr","msl000061","freq","","","img/orange_2bandit_b2.png","70","","70","test","1","","","circle","square","116","112","16","5","0.9553571428571429","","","","","","","","","",""
"null","","987382","SARL_v6tg11awsr","msl000061","freq_resp","","","img/orange_2bandit_b.png","70","img/orange_2bandit_b.png","70","test","","","","","","","","","5","","","","","","","","","","",""
"null","","987537","SARL_v6tg11awsr","msl000061","fixation","","","img/fixation.png","null","","","test","","","","","","","","","","","","","","","","","","","",""
"367","","987909","SARL_v6tg11awsr","msl000061","freq","","","img/orange_2bandit_b2.png","70","","70","test","1","","","circle","square","117","113","17","5","0.9557522123893806","","","","","","","","","",""
"null","","988347","SARL_v6tg11awsr","msl000061","freq_resp","","","img/orange_2bandit_b.png","70","img/orange_2bandit_b.png","70","test","","","","","","","","","5","","","","","","","","","","",""
"null","","988503","SARL_v6tg11awsr","msl000061","fixation","","","img/fixation.png","null","","","test","","","","","","","","","","","","","","","","","","","",""
"423","","988930","SARL_v6tg11awsr","msl000061","infreq","","","img/green_2bandit_b2.png","68","","68","test","1","","","circle","square","118","114","18","5","0.956140350877193","","","","","","","","","",""
"null","","989313","SARL_v6tg11awsr","msl000061","infreq_resp","","","img/green_2bandit_b.png","68","img/green_2bandit_b.png","68","test","","","","","","","","","5","","","","","","","","","","",""
"null","","989469","SARL_v6tg11awsr","msl000061","fixation","","","img/fixation.png","null","","","test","","","","","","","","","","","","","","","","","","","",""
"326","","989800","SARL_v6tg11awsr","msl000061","freq","","","img/orange_2bandit_b2.png","70","","70","test","1","","","circle","square","119","115","19","5","0.9565217391304348","","","","","","","","","",""
"null","","990279","SARL_v6tg11awsr","msl000061","freq_resp","","","img/orange_2bandit_b.png","70","img/orange_2bandit_b.png","70","test","","","","","","","","","5","","","","","","","","","","",""
"null","","990435","SARL_v6tg11awsr","msl000061","fixation","","","img/fixation.png","null","","","test","","","","","","","","","","","","","","","","","","","",""
"293","","990733","SARL_v6tg11awsr","msl000061","freq","","","img/orange_2bandit_b2.png","70","","70","test","1","","","circle","square","120","116","20","5","0.9568965517241379","","","","","","","","","",""
"null","","991245","SARL_v6tg11awsr","msl000061","freq_resp","","","img/orange_2bandit_b.png","70","img/orange_2bandit_b.png","70","test","","","","","","","","","5","","","","","","","","","","",""
"null","","991402","SARL_v6tg11awsr","msl000061","fixation","","","img/fixation.png","null","","","test","","","","","","","","","","","","","","","","","","","",""
"314","","991721","SARL_v6tg11awsr","msl000061","freq","","","img/orange_2bandit_b2.png","70","","70","test","1","","","circle","square","121","117","21","5","0.9572649572649573","","","","","","","","","",""
"null","","992212","SARL_v6tg11awsr","msl000061","freq_resp","","","img/orange_2bandit_b.png","70","img/orange_2bandit_b.png","70","test","","","","","","","","","5","","","","","","","","","","",""
"null","","992367","SARL_v6tg11awsr","msl000061","fixation","","","img/fixation.png","null","","","test","","","","","","","","","","","","","","","","","","","",""
"357","","992730","SARL_v6tg11awsr","msl000061","freq","","","img/orange_2bandit_b2.png","70","","70","test","1","","","circle","square","122","118","22","5","0.9576271186440678","","","","","","","","","",""
"null","","993178","SARL_v6tg11awsr","msl000061","freq_resp","","","img/orange_2bandit_b.png","70","img/orange_2bandit_b.png","70","test","","","","","","","","","5","","","","","","","","","","",""
"null","","993333","SARL_v6tg11awsr","msl000061","fixation","","","img/fixation.png","null","","","test","","","","","","","","","","","","","","","","","","","",""
"447","","993785","SARL_v6tg11awsr","msl000061","freq","","","img/orange_2bandit_b2.png","70","","70","test","1","","","circle","square","123","119","23","5","0.957983193277311","","","","","","","","","",""
"null","","994144","SARL_v6tg11awsr","msl000061","freq_resp","","","img/orange_2bandit_b.png","70","img/orange_2bandit_b.png","70","test","","","","","","","","","5","","","","","","","","","","",""
"null","","994300","SARL_v6tg11awsr","msl000061","fixation","","","img/fixation.png","null","","","test","","","","","","","","","","","","","","","","","","","",""
"530","","994834","SARL_v6tg11awsr","msl000061","freq","","","img/orange_2bandit_b2.png","70","","70","test","1","","","circle","square","124","120","24","5","0.9583333333333334","","","","","","","","","",""
"null","","995110","SARL_v6tg11awsr","msl000061","freq_resp","","","img/orange_2bandit_b.png","70","img/orange_2bandit_b.png","70","test","","","","","","","","","5","","","","","","","","","","",""
"null","","995266","SARL_v6tg11awsr","msl000061","fixation","","","img/fixation.png","null","","","test","","","","","","","","","","","","","","","","","","","",""
"625","","995896","SARL_v6tg11awsr","msl000061","freq","","","img/orange_2bandit_b2.png","70","","70","test","1","","","circle","square","125","121","25","5","0.9586776859504132","","","","","","","","","",""
"null","","996076","SARL_v6tg11awsr","msl000061","freq_resp","","","img/orange_2bandit_b.png","70","img/orange_2bandit_b.png","70","test","","","","","","","","","5","","","","","","","","","","",""
"null","","996233","SARL_v6tg11awsr","msl000061","fixation","","","img/fixation.png","null","","","test","","","","","","","","","","","","","","","","","","","",""
"738","","996976","SARL_v6tg11awsr","msl000061","freq","","","img/orange_2bandit_b2.png","70","","70","test","1","","","circle","square","126","122","26","5","0.9590163934426229","","","","","","","","","",""
"null","","997044","SARL_v6tg11awsr","msl000061","freq_resp","","","img/orange_2bandit_b.png","70","img/orange_2bandit_b.png","70","test","","","","","","","","","5","","","","","","","","","","",""
"null","","997199","SARL_v6tg11awsr","msl000061","fixation","","","img/fixation.png","null","","","test","","","","","","","","","","","","","","","","","","","",""
"749","","997954","SARL_v6tg11awsr","msl000061","freq","","","img/orange_2bandit_b2.png","70","","70","test","1","","","circle","square","127","123","27","5","0.959349593495935","","","","","","","","","",""
"null","","998010","SARL_v6tg11awsr","msl000061","freq_resp","","","img/orange_2bandit_b.png","70","img/orange_2bandit_b.png","70","test","","","","","","","","","5","","","","","","","","","","",""
"null","","998166","SARL_v6tg11awsr","msl000061","fixation","","","img/fixation.png","null","","","test","","","","","","","","","","","","","","","","","","","",""
"728","","998898","SARL_v6tg11awsr","msl000061","freq","","","img/orange_2bandit_b2.png","70","","70","test","1","","","circle","square","128","124","28","5","0.9596774193548387","","","","","","","","","",""
"null","","998976","SARL_v6tg11awsr","msl000061","freq_resp","","","img/orange_2bandit_b.png","70","img/orange_2bandit_b.png","70","test","","","","","","","","","5","","","","","","","","","","",""
"null","","999133","SARL_v6tg11awsr","msl000061","fixation","","","img/fixation.png","null","","","test","","","","","","","","","","","","","","","","","","","",""
"778","","999916","SARL_v6tg11awsr","msl000061","rl","","","img/black_2bandit_b2.png","74","","0","test","","","0","circle","square","129","","0","5","","74","0.8","0.2","0.9220010816249303","0.8","0.2","0.8","circle","5","0"
"null","","1000673","SARL_v6tg11awsr","msl000061","feedback","","","img/boo_L_b.png","null","","na","test","","","","","","","","","5","","74","0.8","0.2","","","","0.8","","5",""
"358","","1001036","SARL_v6tg11awsr","msl000061","freq","","","img/orange_2bandit_b2.png","70","","70","test","1","","","circle","square","130","125","1","6","0.96","","","","","","","","","",""
"null","","1001485","SARL_v6tg11awsr","msl000061","freq_resp","","","img/orange_2bandit_b.png","70","img/orange_2bandit_b.png","70","test","","","","","","","","","6","","","","","","","","","","",""
"null","","1001639","SARL_v6tg11awsr","msl000061","fixation","","","img/fixation.png","null","","","test","","","","","","","","","","","","","","","","","","","",""
"357","","1002001","SARL_v6tg11awsr","msl000061","freq","","","img/orange_2bandit_b2.png","70","","70","test","1","","","circle","square","131","126","2","6","0.9603174603174603","","","","","","","","","",""
"null","","1002450","SARL_v6tg11awsr","msl000061","freq_resp","","","img/orange_2bandit_b.png","70","img/orange_2bandit_b.png","70","test","","","","","","","","","6","","","","","","","","","","",""
"null","","1002606","SARL_v6tg11awsr","msl000061","fixation","","","img/fixation.png","null","","","test","","","","","","","","","","","","","","","","","","","",""
"282","","1002893","SARL_v6tg11awsr","msl000061","freq","","","img/orange_2bandit_b2.png","70","","70","test","1","","","circle","square","132","127","3","6","0.9606299212598425","","","","","","","","","",""
"null","","1003417","SARL_v6tg11awsr","msl000061","freq_resp","","","img/orange_2bandit_b.png","70","img/orange_2bandit_b.png","70","test","","","","","","","","","6","","","","","","","","","","",""
"null","","1003572","SARL_v6tg11awsr","msl000061","fixation","","","img/fixation.png","null","","","test","","","","","","","","","","","","","","","","","","","",""
"212","","1003789","SARL_v6tg11awsr","msl000061","freq","","","img/orange_2bandit_b2.png","70","","70","test","1","","","circle","square","133","128","4","6","0.9609375","","","","","","","","","",""
"null","","1004383","SARL_v6tg11awsr","msl000061","freq_resp","","","img/orange_2bandit_b.png","70","img/orange_2bandit_b.png","70","test","","","","","","","","","6","","","","","","","","","","",""
"null","","1004538","SARL_v6tg11awsr","msl000061","fixation","","","img/fixation.png","null","","","test","","","","","","","","","","","","","","","","","","","",""
"162","","1004705","SARL_v6tg11awsr","msl000061","freq","","","img/orange_2bandit_b2.png","70","","70","test","1","","","circle","square","134","129","5","6","0.9612403100775194","","","","","","","","","",""
"null","","1005349","SARL_v6tg11awsr","msl000061","freq_resp","","","img/orange_2bandit_b.png","70","img/orange_2bandit_b.png","70","test","","","","","","","","","6","","","","","","","","","","",""
"null","","1005505","SARL_v6tg11awsr","msl000061","fixation","","","img/fixation.png","null","","","test","","","","","","","","","","","","","","","","","","","",""
"128","","1005639","SARL_v6tg11awsr","msl000061","freq","","","img/orange_2bandit_b2.png","70","","70","test","1","","","circle","square","135","130","6","6","0.9615384615384616","","","","","","","","","",""
"null","","1006315","SARL_v6tg11awsr","msl000061","freq_resp","","","img/orange_2bandit_b.png","70","img/orange_2bandit_b.png","70","test","","","","","","","","","6","","","","","","","","","","",""
"null","","1006471","SARL_v6tg11awsr","msl000061","fixation","","","img/fixation.png","null","","","test","","","","","","","","","","","","","","","","","","","",""
"105","","1006582","SARL_v6tg11awsr","msl000061","infreq","","","img/green_2bandit_b2.png","70","","68","test","0","","","circle","square","136","131","7","6","0.9541984732824428","","","","","","","","","",""
"null","","1007284","SARL_v6tg11awsr","msl000061","infreq_resp","","","img/green_2bandit_b.png","70","img/green_2bandit_b.png","68","test","","","","","","","","","6","","","","","","","","","","",""
"null","","1007440","SARL_v6tg11awsr","msl000061","fixation","","","img/fixation.png","null","","","test","","","","","","","","","","","","","","","","","","","",""
"267","","1007712","SARL_v6tg11awsr","msl000061","freq","","","img/orange_2bandit_b2.png","70","","70","test","1","","","circle","square","137","132","8","6","0.9545454545454546","","","","","","","","","",""
"null","","1008250","SARL_v6tg11awsr","msl000061","freq_resp","","","img/orange_2bandit_b.png","70","img/orange_2bandit_b.png","70","test","","","","","","","","","6","","","","","","","","","","",""
"null","","1008406","SARL_v6tg11awsr","msl000061","fixation","","","img/fixation.png","null","","","test","","","","","","","","","","","","","","","","","","","",""
"331","","1008743","SARL_v6tg11awsr","msl000061","freq","","","img/orange_2bandit_b2.png","70","","70","test","1","","","circle","square","138","133","9","6","0.9548872180451128","","","","","","","","","",""
"null","","1009216","SARL_v6tg11awsr","msl000061","freq_resp","","","img/orange_2bandit_b.png","70","img/orange_2bandit_b.png","70","test","","","","","","","","","6","","","","","","","","","","",""
"null","","1009372","SARL_v6tg11awsr","msl000061","fixation","","","img/fixation.png","null","","","test","","","","","","","","","","","","","","","","","","","",""
"271","","1009649","SARL_v6tg11awsr","msl000061","freq","","","img/orange_2bandit_b2.png","70","","70","test","1","","","circle","square","139","134","10","6","0.9552238805970149","","","","","","","","","",""
"null","","1010183","SARL_v6tg11awsr","msl000061","freq_resp","","","img/orange_2bandit_b.png","70","img/orange_2bandit_b.png","70","test","","","","","","","","","6","","","","","","","","","","",""
"null","","1010339","SARL_v6tg11awsr","msl000061","fixation","","","img/fixation.png","null","","","test","","","","","","","","","","","","","","","","","","","",""
"171","","1010514","SARL_v6tg11awsr","msl000061","freq","","","img/orange_2bandit_b2.png","70","","70","test","1","","","circle","square","140","135","11","6","0.9555555555555556","","","","","","","","","",""
"null","","1011149","SARL_v6tg11awsr","msl000061","freq_resp","","","img/orange_2bandit_b.png","70","img/orange_2bandit_b.png","70","test","","","","","","","","","6","","","","","","","","","","",""
"null","","1011305","SARL_v6tg11awsr","msl000061","fixation","","","img/fixation.png","null","","","test","","","","","","","","","","","","","","","","","","","",""
"126","","1011436","SARL_v6tg11awsr","msl000061","freq","","","img/orange_2bandit_b2.png","70","","70","test","1","","","circle","square","141","136","12","6","0.9558823529411765","","","","","","","","","",""
"null","","1012116","SARL_v6tg11awsr","msl000061","freq_resp","","","img/orange_2bandit_b.png","70","img/orange_2bandit_b.png","70","test","","","","","","","","","6","","","","","","","","","","",""
"null","","1012272","SARL_v6tg11awsr","msl000061","fixation","","","img/fixation.png","null","","","test","","","","","","","","","","","","","","","","","","","",""
"79","","1012355","SARL_v6tg11awsr","msl000061","freq","","","img/orange_2bandit_b2.png","70","","70","test","1","","","circle","square","142","137","13","6","0.9562043795620438","","","","","","","","","",""
"null","","1013082","SARL_v6tg11awsr","msl000061","freq_resp","","","img/orange_2bandit_b.png","70","img/orange_2bandit_b.png","70","test","","","","","","","","","6","","","","","","","","","","",""
"null","","1013238","SARL_v6tg11awsr","msl000061","fixation","","","img/fixation.png","null","","","test","","","","","","","","","","","","","","","","","","","",""
"94","","1013336","SARL_v6tg11awsr","msl000061","freq","","","img/orange_2bandit_b2.png","70","","70","test","1","","","circle","square","143","138","14","6","0.9565217391304348","","","","","","","","","",""
"null","","1014048","SARL_v6tg11awsr","msl000061","freq_resp","","","img/orange_2bandit_b.png","70","img/orange_2bandit_b.png","70","test","","","","","","","","","6","","","","","","","","","","",""
"null","","1014205","SARL_v6tg11awsr","msl000061","fixation","","","img/fixation.png","null","","","test","","","","","","","","","","","","","","","","","","","",""
"126","","1014336","SARL_v6tg11awsr","msl000061","freq","","","img/orange_2bandit_b2.png","70","","70","test","1","","","circle","square","144","139","15","6","0.9568345323741008","","","","","","","","","",""
"null","","1015016","SARL_v6tg11awsr","msl000061","freq_resp","","","img/orange_2bandit_b.png","70","img/orange_2bandit_b.png","70","test","","","","","","","","","6","","","","","","","","","","",""
"null","","1015171","SARL_v6tg11awsr","msl000061","fixation","","","img/fixation.png","null","","","test","","","","","","","","","","","","","","","","","","","",""
"119","","1015294","SARL_v6tg11awsr","msl000061","freq","","","img/orange_2bandit_b2.png","70","","70","test","1","","","circle","square","145","140","16","6","0.9571428571428572","","","","","","","","","",""
"null","","1015982","SARL_v6tg11awsr","msl000061","freq_resp","","","img/orange_2bandit_b.png","70","img/orange_2bandit_b.png","70","test","","","","","","","","","6","","","","","","","","","","",""
"null","","1016137","SARL_v6tg11awsr","msl000061","fixation","","","img/fixation.png","null","","","test","","","","","","","","","","","","","","","","","","","",""
"278","","1016419","SARL_v6tg11awsr","msl000061","freq","","","img/orange_2bandit_b2.png","70","","70","test","1","","","circle","square","146","141","17","6","0.9574468085106383","","","","","","","","","",""
"null","","1016948","SARL_v6tg11awsr","msl000061","freq_resp","","","img/orange_2bandit_b.png","70","img/orange_2bandit_b.png","70","test","","","","","","","","","6","","","","","","","","","","",""
"null","","1017104","SARL_v6tg11awsr","msl000061","fixation","","","img/fixation.png","null","","","test","","","","","","","","","","","","","","","","","","","",""
"299","","1017408","SARL_v6tg11awsr","msl000061","freq","","","img/orange_2bandit_b2.png","70","","70","test","1","","","circle","square","147","142","18","6","0.9577464788732394","","","","","","","","","",""
"null","","1017915","SARL_v6tg11awsr","msl000061","freq_resp","","","img/orange_2bandit_b.png","70","img/orange_2bandit_b.png","70","test","","","","","","","","","6","","","","","","","","","","",""
