"rt","responses","time_elapsed","subject","demoID","trialType","rlType","attType","stimulus","key_press","stim","corrresp","phase","corr","pracCounter","reward","bandOne","bandTwo","trialNum","attentionNum","attentionRunNum","blockNum","performance","bandChosen","circleVal","squareVal","coin","bandOneVal","bandTwoVal","pReward","shapeChosen","rlNum","badFlag"
"1266459","{""Q0"":""msl000118""}","1266488","SARL_v6yyllsbjc","msl000118","","","","","","","","","","","","","","","","","","","","","","","","","","","",""
"5760","","1272255","SARL_v6yyllsbjc","msl000118","","","","","","","","","","","","","","","","","","","","","","","","","","","",""
"","","1273989","SARL_v6yyllsbjc","msl000118","fullscreen","fullscreen","fullscreen","","","","","","","","","","","","","","","","","","","","","","","","",""
"111249","","1385244","SARL_v6yyllsbjc","msl000118","","","","","","","","","","","","","","","","","","","","","","","","","","","",""
"650","","1385899","SARL_v6yyllsbjc","msl000118","freqPrac","","","img/orange_2bandit_b2.png","70","img/orange_2bandit_b2.png","70","prac","1","0","","","","","","","","","","","","","","","","","",""
"650","","1386056","SARL_v6yyllsbjc","msl000118","freqPrac_resp","","","img/orange_2bandit_b.png","70","img/orange_2bandit_b.png","70","prac","","","","","","","","","","","","","","","","","","","",""
"null","","1386212","SARL_v6yyllsbjc","msl000118","fixation","","","img/fixation.png","null","","","prac","","","","","","","","","","","","","","","","","","","",""
"551","","1386768","SARL_v6yyllsbjc","msl000118","infreqPrac","","","img/green_2bandit_b2.png","68","img/green_2bandit_b2.png","68","prac","1","0","","","","","","","","","","","","","","","","","",""
"551","","1387023","SARL_v6yyllsbjc","msl000118","infreqPrac_resp","","","img/green_2bandit_b.png","68","img/green_2bandit_b.png","68","prac","","","","","","","","","","","","","","","","","","","",""
"null","","1387178","SARL_v6yyllsbjc","msl000118","fixation","","","img/fixation.png","null","","","prac","","","","","","","","","","","","","","","","","","","",""
"494","","1387678","SARL_v6yyllsbjc","msl000118","freqPrac","","","img/orange_2bandit_b2.png","70","img/orange_2bandit_b2.png","70","prac","1","0","","","","","","","","","","","","","","","","","",""
"494","","1387989","SARL_v6yyllsbjc","msl000118","freqPrac_resp","","","img/orange_2bandit_b.png","70","img/orange_2bandit_b.png","70","prac","","","","","","","","","","","","","","","","","","","",""
"null","","1388145","SARL_v6yyllsbjc","msl000118","fixation","","","img/fixation.png","null","","","prac","","","","","","","","","","","","","","","","","","","",""
"484","","1388633","SARL_v6yyllsbjc","msl000118","infreqPrac","","","img/green_2bandit_b2.png","70","img/green_2bandit_b2.png","68","prac","0","1","","","","","","","","","","","","","","","","","",""
"484","","1388956","SARL_v6yyllsbjc","msl000118","infreqPrac_resp","","","img/green_2bandit_b.png","70","img/green_2bandit_b.png","68","prac","","","","","","","","","","","","","","","","","","","",""
"null","","1389962","SARL_v6yyllsbjc","msl000118","feedback","","","img/wrongKey.png","null","","na","prac","","","","","","","","","","","","","","","","","","","",""
"null","","1390117","SARL_v6yyllsbjc","msl000118","fixation","","","img/fixation.png","null","","","prac","","","","","","","","","","","","","","","","","","","",""
"561","","1390682","SARL_v6yyllsbjc","msl000118","infreqPrac","","","img/green_2bandit_b2.png","68","img/green_2bandit_b2.png","68","prac","1","1","","","","","","","","","","","","","","","","","",""
"561","","1390926","SARL_v6yyllsbjc","msl000118","infreqPrac_resp","","","img/green_2bandit_b.png","68","img/green_2bandit_b.png","68","prac","","","","","","","","","","","","","","","","","","","",""
"null","","1391082","SARL_v6yyllsbjc","msl000118","fixation","","","img/fixation.png","null","","","prac","","","","","","","","","","","","","","","","","","","",""
"461","","1391548","SARL_v6yyllsbjc","msl000118","infreqPrac","","","img/green_2bandit_b2.png","68","img/green_2bandit_b2.png","68","prac","1","1","","","","","","","","","","","","","","","","","",""
"461","","1391893","SARL_v6yyllsbjc","msl000118","infreqPrac_resp","","","img/green_2bandit_b.png","68","img/green_2bandit_b.png","68","prac","","","","","","","","","","","","","","","","","","","",""
"null","","1392049","SARL_v6yyllsbjc","msl000118","fixation","","","img/fixation.png","null","","","prac","","","","","","","","","","","","","","","","","","","",""
"394","","1392448","SARL_v6yyllsbjc","msl000118","freqPrac","","","img/orange_2bandit_b2.png","70","img/orange_2bandit_b2.png","70","prac","1","1","","","","","","","","","","","","","","","","","",""
"394","","1392859","SARL_v6yyllsbjc","msl000118","freqPrac_resp","","","img/orange_2bandit_b.png","70","img/orange_2bandit_b.png","70","prac","","","","","","","","","","","","","","","","","","","",""
"null","","1393016","SARL_v6yyllsbjc","msl000118","fixation","","","img/fixation.png","null","","","prac","","","","","","","","","","","","","","","","","","","",""
"663","","1393683","SARL_v6yyllsbjc","msl000118","infreqPrac","","","img/green_2bandit_b2.png","68","img/green_2bandit_b2.png","68","prac","1","1","","","","","","","","","","","","","","","","","",""
"663","","1393825","SARL_v6yyllsbjc","msl000118","infreqPrac_resp","","","img/green_2bandit_b.png","68","img/green_2bandit_b.png","68","prac","","","","","","","","","","","","","","","","","","","",""
"null","","1393981","SARL_v6yyllsbjc","msl000118","fixation","","","img/fixation.png","null","","","prac","","","","","","","","","","","","","","","","","","","",""
"445","","1394431","SARL_v6yyllsbjc","msl000118","freqPrac","","","img/orange_2bandit_b2.png","70","img/orange_2bandit_b2.png","70","prac","1","1","","","","","","","","","","","","","","","","","",""
"445","","1394791","SARL_v6yyllsbjc","msl000118","freqPrac_resp","","","img/orange_2bandit_b.png","70","img/orange_2bandit_b.png","70","prac","","","","","","","","","","","","","","","","","","","",""
"null","","1394948","SARL_v6yyllsbjc","msl000118","fixation","","","img/fixation.png","null","","","prac","","","","","","","","","","","","","","","","","","","",""
"424","","1395375","SARL_v6yyllsbjc","msl000118","freqPrac","","","img/orange_2bandit_b2.png","70","img/orange_2bandit_b2.png","70","prac","1","1","","","","","","","","","","","","","","","","","",""
"424","","1395757","SARL_v6yyllsbjc","msl000118","freqPrac_resp","","","img/orange_2bandit_b.png","70","img/orange_2bandit_b.png","70","prac","","","","","","","","","","","","","","","","","","","",""
"null","","1395913","SARL_v6yyllsbjc","msl000118","fixation","","","img/fixation.png","null","","","prac","","","","","","","","","","","","","","","","","","","",""
"75442","","1471359","SARL_v6yyllsbjc","msl000118","","","","","","","","prac","","","","","","","","","","","","","","","","","","","",""
"993","","1472356","SARL_v6yyllsbjc","msl000118","rlPractice","","","img/black_2bandit_b2.png","74","img/black_2bandit_b2.png","","prac","","","75","","","","","","","","","","","","","","","","",""
"null","","1473113","SARL_v6yyllsbjc","msl000118","feedback","","","img/boo_L_b.png","null","","na","prac","","","","","","","","","","","","","","","","","","","",""
"null","","1473269","SARL_v6yyllsbjc","msl000118","fixation","","","img/fixation.png","null","","","prac","","","","","","","","","","","","","","","","","","","",""
"534","","1473808","SARL_v6yyllsbjc","msl000118","rlPractice","","","img/black_2bandit_b2.png","75","img/black_2bandit_b2.png","","prac","","","75","","","","","","","","","","","","","","","","",""
"null","","1474564","SARL_v6yyllsbjc","msl000118","feedback","","","img/yay_R_b.png","null","","na","prac","","","","","","","","","","","","","","","","","","","",""
"null","","1474721","SARL_v6yyllsbjc","msl000118","fixation","","","img/fixation.png","null","","","prac","","","","","","","","","","","","","","","","","","","",""
"399","","1475125","SARL_v6yyllsbjc","msl000118","rlPractice","","","img/black_2bandit_b2.png","75","img/black_2bandit_b2.png","","prac","","","75","","","","","","","","","","","","","","","","",""
"null","","1475880","SARL_v6yyllsbjc","msl000118","feedback","","","img/yay_R_b.png","null","","na","prac","","","","","","","","","","","","","","","","","","","",""
"null","","1476037","SARL_v6yyllsbjc","msl000118","fixation","","","img/fixation.png","null","","","prac","","","","","","","","","","","","","","","","","","","",""
"467","","1476509","SARL_v6yyllsbjc","msl000118","rlPractice","","","img/black_2bandit_b2.png","75","img/black_2bandit_b2.png","","prac","","","75","","","","","","","","","","","","","","","","",""
"null","","1477265","SARL_v6yyllsbjc","msl000118","feedback","","","img/yay_R_b.png","null","","na","prac","","","","","","","","","","","","","","","","","","","",""
"null","","1477420","SARL_v6yyllsbjc","msl000118","fixation","","","img/fixation.png","null","","","prac","","","","","","","","","","","","","","","","","","","",""
"355","","1477779","SARL_v6yyllsbjc","msl000118","rlPractice","","","img/black_2bandit_b2.png","75","img/black_2bandit_b2.png","","prac","","","75","","","","","","","","","","","","","","","","",""
"null","","1478535","SARL_v6yyllsbjc","msl000118","feedback","","","img/yay_R_b.png","null","","na","prac","","","","","","","","","","","","","","","","","","","",""
"null","","1478692","SARL_v6yyllsbjc","msl000118","fixation","","","img/fixation.png","null","","","prac","","","","","","","","","","","","","","","","","","","",""
"306","","1479002","SARL_v6yyllsbjc","msl000118","rlPractice","","","img/black_2bandit_b2.png","75","img/black_2bandit_b2.png","","prac","","","75","","","","","","","","","","","","","","","","",""
"null","","1479758","SARL_v6yyllsbjc","msl000118","feedback","","","img/yay_R_b.png","null","","na","prac","","","","","","","","","","","","","","","","","","","",""
"null","","1479914","SARL_v6yyllsbjc","msl000118","fixation","","","img/fixation.png","null","","","prac","","","","","","","","","","","","","","","","","","","",""
"376","","1480295","SARL_v6yyllsbjc","msl000118","rlPractice","","","img/black_2bandit_b2.png","75","img/black_2bandit_b2.png","","prac","","","75","","","","","","","","","","","","","","","","",""
"null","","1481051","SARL_v6yyllsbjc","msl000118","feedback","","","img/yay_R_b.png","null","","na","prac","","","","","","","","","","","","","","","","","","","",""
"null","","1481207","SARL_v6yyllsbjc","msl000118","fixation","","","img/fixation.png","null","","","prac","","","","","","","","","","","","","","","","","","","",""
"39636","","1520847","SARL_v6yyllsbjc","msl000118","","","","","","","","prac","","","","","","","","","","","","","","","","","","","",""
"710","","1521561","SARL_v6yyllsbjc","msl000118","mixAttFreqPrac","","","img/orange_2bandit_b2.png","70","img/orange_2bandit_b2.png","70","prac","","","","","","","","","","","","","","","","","","","",""
"710","","1521656","SARL_v6yyllsbjc","msl000118","freqPrac_resp","","","img/orange_2bandit_b.png","70","img/orange_2bandit_b.png","70","prac","","","","","","","","","","","","","","","","","","","",""
"null","","1521810","SARL_v6yyllsbjc","msl000118","fixation","","","img/fixation.png","null","","","prac","","","","","","","","","","","","","","","","","","","",""
"511","","1522325","SARL_v6yyllsbjc","msl000118","mixAttInfreqPrac","","","img/green_2bandit_b2.png","68","img/green_2bandit_b2.png","68","prac","","","","","","","","","","","","","","","","","","","",""
"511","","1522620","SARL_v6yyllsbjc","msl000118","infreqPrac_resp","","","img/green_2bandit_b.png","68","img/orange_2bandit_b.png","68","prac","","","","","","","","","","","","","","","","","","","",""
"null","","1522775","SARL_v6yyllsbjc","msl000118","fixation","","","img/fixation.png","null","","","prac","","","","","","","","","","","","","","","","","","","",""
"83","","1522863","SARL_v6yyllsbjc","msl000118","mixAttInfreqPrac","","","img/green_2bandit_b2.png","68","img/green_2bandit_b2.png","68","prac","","","","","","","","","","","","","","","","","","","",""
"83","","1523587","SARL_v6yyllsbjc","msl000118","infreqPrac_resp","","","img/green_2bandit_b.png","68","img/orange_2bandit_b.png","68","prac","","","","","","","","","","","","","","","","","","","",""
"null","","1523742","SARL_v6yyllsbjc","msl000118","fixation","","","img/fixation.png","null","","","prac","","","","","","","","","","","","","","","","","","","",""
"478","","1524225","SARL_v6yyllsbjc","msl000118","mixAttInfreqPrac","","","img/green_2bandit_b2.png","68","img/green_2bandit_b2.png","68","prac","","","","","","","","","","","","","","","","","","","",""
"478","","1524554","SARL_v6yyllsbjc","msl000118","infreqPrac_resp","","","img/green_2bandit_b.png","68","img/orange_2bandit_b.png","68","prac","","","","","","","","","","","","","","","","","","","",""
"null","","1524709","SARL_v6yyllsbjc","msl000118","fixation","","","img/fixation.png","null","","","prac","","","","","","","","","","","","","","","","","","","",""
"460","","1525174","SARL_v6yyllsbjc","msl000118","mixAttFreqPrac","","","img/orange_2bandit_b2.png","70","img/orange_2bandit_b2.png","70","prac","","","","","","","","","","","","","","","","","","","",""
"460","","1525519","SARL_v6yyllsbjc","msl000118","freqPrac_resp","","","img/orange_2bandit_b.png","70","img/orange_2bandit_b.png","70","prac","","","","","","","","","","","","","","","","","","","",""
"null","","1525675","SARL_v6yyllsbjc","msl000118","fixation","","","img/fixation.png","null","","","prac","","","","","","","","","","","","","","","","","","","",""
"798","","1526479","SARL_v6yyllsbjc","msl000118","mixRLPractice","","","img/black_2bandit_b2.png","75","img/black_2bandit_b2.png","","prac","","","","","","","","","","","","","","","","","","","",""
"null","","1527235","SARL_v6yyllsbjc","msl000118","feedback","","","img/yay_R_b.png","null","","na","prac","","","","","","","","","","","","","","","","","","","",""
"650","","1527890","SARL_v6yyllsbjc","msl000118","mixAttFreqPrac","","","img/orange_2bandit_b2.png","70","img/orange_2bandit_b2.png","70","prac","","","","","","","","","","","","","","","","","","","",""
"650","","1528046","SARL_v6yyllsbjc","msl000118","freqPrac_resp","","","img/orange_2bandit_b.png","70","img/orange_2bandit_b.png","70","prac","","","","","","","","","","","","","","","","","","","",""
"null","","1528202","SARL_v6yyllsbjc","msl000118","fixation","","","img/fixation.png","null","","","prac","","","","","","","","","","","","","","","","","","","",""
"517","","1528724","SARL_v6yyllsbjc","msl000118","mixAttInfreqPrac","","","img/green_2bandit_b2.png","68","img/green_2bandit_b2.png","68","prac","","","","","","","","","","","","","","","","","","","",""
"517","","1529014","SARL_v6yyllsbjc","msl000118","infreqPrac_resp","","","img/green_2bandit_b.png","68","img/orange_2bandit_b.png","68","prac","","","","","","","","","","","","","","","","","","","",""
"null","","1529168","SARL_v6yyllsbjc","msl000118","fixation","","","img/fixation.png","null","","","prac","","","","","","","","","","","","","","","","","","","",""
"403","","1529577","SARL_v6yyllsbjc","msl000118","mixAttFreqPrac","","","img/orange_2bandit_b2.png","70","img/orange_2bandit_b2.png","70","prac","","","","","","","","","","","","","","","","","","","",""
"403","","1529978","SARL_v6yyllsbjc","msl000118","freqPrac_resp","","","img/orange_2bandit_b.png","70","img/orange_2bandit_b.png","70","prac","","","","","","","","","","","","","","","","","","","",""
"null","","1530134","SARL_v6yyllsbjc","msl000118","fixation","","","img/fixation.png","null","","","prac","","","","","","","","","","","","","","","","","","","",""
"438","","1530576","SARL_v6yyllsbjc","msl000118","mixAttFreqPrac","","","img/orange_2bandit_b2.png","70","img/orange_2bandit_b2.png","70","prac","","","","","","","","","","","","","","","","","","","",""
"438","","1530944","SARL_v6yyllsbjc","msl000118","freqPrac_resp","","","img/orange_2bandit_b.png","70","img/orange_2bandit_b.png","70","prac","","","","","","","","","","","","","","","","","","","",""
"null","","1531099","SARL_v6yyllsbjc","msl000118","fixation","","","img/fixation.png","null","","","prac","","","","","","","","","","","","","","","","","","","",""
"346","","1531450","SARL_v6yyllsbjc","msl000118","mixAttInfreqPrac","","","img/green_2bandit_b2.png","68","img/green_2bandit_b2.png","68","prac","","","","","","","","","","","","","","","","","","","",""
"346","","1531909","SARL_v6yyllsbjc","msl000118","infreqPrac_resp","","","img/green_2bandit_b.png","68","img/orange_2bandit_b.png","68","prac","","","","","","","","","","","","","","","","","","","",""
"null","","1532065","SARL_v6yyllsbjc","msl000118","fixation","","","img/fixation.png","null","","","prac","","","","","","","","","","","","","","","","","","","",""
"677","","1532746","SARL_v6yyllsbjc","msl000118","mixRLPractice","","","img/black_2bandit_b2.png","75","img/black_2bandit_b2.png","","prac","","","","","","","","","","","","","","","","","","","",""
"null","","1533502","SARL_v6yyllsbjc","msl000118","feedback","","","img/yay_R_b.png","null","","na","prac","","","","","","","","","","","","","","","","","","","",""
"61262","","1594769","SARL_v6yyllsbjc","msl000118","","","","","","","","prac","","","","","","","","","","","","","","","","","","","",""
"537","","1595311","SARL_v6yyllsbjc","msl000118","freq","","","img/orange_2bandit_b2.png","70","","70","test","1","","","circle","square","1","1","1","1","1","","","","","","","","","",""
"null","","1595578","SARL_v6yyllsbjc","msl000118","freq_resp","","","img/orange_2bandit_b.png","70","img/orange_2bandit_b.png","70","test","","","","","","","","","1","","","","","","","","","","",""
"null","","1595733","SARL_v6yyllsbjc","msl000118","fixation","","","img/fixation.png","null","","","test","","","","","","","","","","","","","","","","","","","",""
"416","","1596155","SARL_v6yyllsbjc","msl000118","freq","","","img/orange_2bandit_b2.png","70","","70","test","1","","","circle","square","2","2","2","1","1","","","","","","","","","",""
"null","","1596545","SARL_v6yyllsbjc","msl000118","freq_resp","","","img/orange_2bandit_b.png","70","img/orange_2bandit_b.png","70","test","","","","","","","","","1","","","","","","","","","","",""
"null","","1596700","SARL_v6yyllsbjc","msl000118","fixation","","","img/fixation.png","null","","","test","","","","","","","","","","","","","","","","","","","",""
"428","","1597133","SARL_v6yyllsbjc","msl000118","freq","","","img/orange_2bandit_b2.png","70","","70","test","1","","","circle","square","3","3","3","1","1","","","","","","","","","",""
"null","","1597512","SARL_v6yyllsbjc","msl000118","freq_resp","","","img/orange_2bandit_b.png","70","img/orange_2bandit_b.png","70","test","","","","","","","","","1","","","","","","","","","","",""
"null","","1597668","SARL_v6yyllsbjc","msl000118","fixation","","","img/fixation.png","null","","","test","","","","","","","","","","","","","","","","","","","",""
"411","","1598083","SARL_v6yyllsbjc","msl000118","freq","","","img/orange_2bandit_b2.png","70","","70","test","1","","","circle","square","4","4","4","1","1","","","","","","","","","",""
"null","","1598479","SARL_v6yyllsbjc","msl000118","freq_resp","","","img/orange_2bandit_b.png","70","img/orange_2bandit_b.png","70","test","","","","","","","","","1","","","","","","","","","","",""
"null","","1598634","SARL_v6yyllsbjc","msl000118","fixation","","","img/fixation.png","null","","","test","","","","","","","","","","","","","","","","","","","",""
"338","","1598976","SARL_v6yyllsbjc","msl000118","freq","","","img/orange_2bandit_b2.png","70","","70","test","1","","","circle","square","5","5","5","1","1","","","","","","","","","",""
"null","","1599444","SARL_v6yyllsbjc","msl000118","freq_resp","","","img/orange_2bandit_b.png","70","img/orange_2bandit_b.png","70","test","","","","","","","","","1","","","","","","","","","","",""
"null","","1599601","SARL_v6yyllsbjc","msl000118","fixation","","","img/fixation.png","null","","","test","","","","","","","","","","","","","","","","","","","",""
"330","","1599936","SARL_v6yyllsbjc","msl000118","freq","","","img/orange_2bandit_b2.png","70","","70","test","1","","","circle","square","6","6","6","1","1","","","","","","","","","",""
"null","","1600411","SARL_v6yyllsbjc","msl000118","freq_resp","","","img/orange_2bandit_b.png","70","img/orange_2bandit_b.png","70","test","","","","","","","","","1","","","","","","","","","","",""
"null","","1600568","SARL_v6yyllsbjc","msl000118","fixation","","","img/fixation.png","null","","","test","","","","","","","","","","","","","","","","","","","",""
"462","","1601035","SARL_v6yyllsbjc","msl000118","infreq","","","img/green_2bandit_b2.png","68","","68","test","1","","","circle","square","7","7","7","1","1","","","","","","","","","",""
"null","","1601378","SARL_v6yyllsbjc","msl000118","infreq_resp","","","img/green_2bandit_b.png","68","img/green_2bandit_b.png","68","test","","","","","","","","","1","","","","","","","","","","",""
"null","","1601533","SARL_v6yyllsbjc","msl000118","fixation","","","img/fixation.png","null","","","test","","","","","","","","","","","","","","","","","","","",""
"534","","1602072","SARL_v6yyllsbjc","msl000118","freq","","","img/orange_2bandit_b2.png","70","","70","test","1","","","circle","square","8","8","8","1","1","","","","","","","","","",""
"null","","1602343","SARL_v6yyllsbjc","msl000118","freq_resp","","","img/orange_2bandit_b.png","70","img/orange_2bandit_b.png","70","test","","","","","","","","","1","","","","","","","","","","",""
"null","","1602499","SARL_v6yyllsbjc","msl000118","fixation","","","img/fixation.png","null","","","test","","","","","","","","","","","","","","","","","","","",""
"389","","1602893","SARL_v6yyllsbjc","msl000118","freq","","","img/orange_2bandit_b2.png","70","","70","test","1","","","circle","square","9","9","9","1","1","","","","","","","","","",""
"null","","1603310","SARL_v6yyllsbjc","msl000118","freq_resp","","","img/orange_2bandit_b.png","70","img/orange_2bandit_b.png","70","test","","","","","","","","","1","","","","","","","","","","",""
"null","","1603465","SARL_v6yyllsbjc","msl000118","fixation","","","img/fixation.png","null","","","test","","","","","","","","","","","","","","","","","","","",""
"356","","1603827","SARL_v6yyllsbjc","msl000118","freq","","","img/orange_2bandit_b2.png","70","","70","test","1","","","circle","square","10","10","10","1","1","","","","","","","","","",""
"null","","1604276","SARL_v6yyllsbjc","msl000118","freq_resp","","","img/orange_2bandit_b.png","70","img/orange_2bandit_b.png","70","test","","","","","","","","","1","","","","","","","","","","",""
"null","","1604432","SARL_v6yyllsbjc","msl000118","fixation","","","img/fixation.png","null","","","test","","","","","","","","","","","","","","","","","","","",""
"335","","1604771","SARL_v6yyllsbjc","msl000118","freq","","","img/orange_2bandit_b2.png","70","","70","test","1","","","circle","square","11","11","11","1","1","","","","","","","","","",""
"null","","1605241","SARL_v6yyllsbjc","msl000118","freq_resp","","","img/orange_2bandit_b.png","70","img/orange_2bandit_b.png","70","test","","","","","","","","","1","","","","","","","","","","",""
"null","","1605397","SARL_v6yyllsbjc","msl000118","fixation","","","img/fixation.png","null","","","test","","","","","","","","","","","","","","","","","","","",""
"374","","1605775","SARL_v6yyllsbjc","msl000118","freq","","","img/orange_2bandit_b2.png","70","","70","test","1","","","circle","square","12","12","12","1","1","","","","","","","","","",""
"null","","1606208","SARL_v6yyllsbjc","msl000118","freq_resp","","","img/orange_2bandit_b.png","70","img/orange_2bandit_b.png","70","test","","","","","","","","","1","","","","","","","","","","",""
"null","","1606363","SARL_v6yyllsbjc","msl000118","fixation","","","img/fixation.png","null","","","test","","","","","","","","","","","","","","","","","","","",""
"346","","1606714","SARL_v6yyllsbjc","msl000118","infreq","","","img/green_2bandit_b2.png","68","","68","test","1","","","circle","square","13","13","13","1","1","","","","","","","","","",""
"null","","1607172","SARL_v6yyllsbjc","msl000118","infreq_resp","","","img/green_2bandit_b.png","68","img/green_2bandit_b.png","68","test","","","","","","","","","1","","","","","","","","","","",""
"null","","1607329","SARL_v6yyllsbjc","msl000118","fixation","","","img/fixation.png","null","","","test","","","","","","","","","","","","","","","","","","","",""
"283","","1607618","SARL_v6yyllsbjc","msl000118","freq","","","img/orange_2bandit_b2.png","70","","70","test","1","","","circle","square","14","14","14","1","1","","","","","","","","","",""
"null","","1608140","SARL_v6yyllsbjc","msl000118","freq_resp","","","img/orange_2bandit_b.png","70","img/orange_2bandit_b.png","70","test","","","","","","","","","1","","","","","","","","","","",""
"null","","1608297","SARL_v6yyllsbjc","msl000118","fixation","","","img/fixation.png","null","","","test","","","","","","","","","","","","","","","","","","","",""
"346","","1608647","SARL_v6yyllsbjc","msl000118","freq","","","img/orange_2bandit_b2.png","70","","70","test","1","","","circle","square","15","15","15","1","1","","","","","","","","","",""
"null","","1609107","SARL_v6yyllsbjc","msl000118","freq_resp","","","img/orange_2bandit_b.png","70","img/orange_2bandit_b.png","70","test","","","","","","","","","1","","","","","","","","","","",""
"null","","1609262","SARL_v6yyllsbjc","msl000118","fixation","","","img/fixation.png","null","","","test","","","","","","","","","","","","","","","","","","","",""
"75","","1609342","SARL_v6yyllsbjc","msl000118","freq","","","img/orange_2bandit_b2.png","70","","70","test","1","","","circle","square","16","16","16","1","1","","","","","","","","","",""
"null","","1610073","SARL_v6yyllsbjc","msl000118","freq_resp","","","img/orange_2bandit_b.png","70","img/orange_2bandit_b.png","70","test","","","","","","","","","1","","","","","","","","","","",""
"null","","1610228","SARL_v6yyllsbjc","msl000118","fixation","","","img/fixation.png","null","","","test","","","","","","","","","","","","","","","","","","","",""
"493","","1610726","SARL_v6yyllsbjc","msl000118","freq","","","img/orange_2bandit_b2.png","70","","70","test","1","","","circle","square","17","17","17","1","1","","","","","","","","","",""
"null","","1611039","SARL_v6yyllsbjc","msl000118","freq_resp","","","img/orange_2bandit_b.png","70","img/orange_2bandit_b.png","70","test","","","","","","","","","1","","","","","","","","","","",""
"null","","1611193","SARL_v6yyllsbjc","msl000118","fixation","","","img/fixation.png","null","","","test","","","","","","","","","","","","","","","","","","","",""
"346","","1611545","SARL_v6yyllsbjc","msl000118","freq","","","img/orange_2bandit_b2.png","70","","70","test","1","","","circle","square","18","18","18","1","1","","","","","","","","","",""
"null","","1612005","SARL_v6yyllsbjc","msl000118","freq_resp","","","img/orange_2bandit_b.png","70","img/orange_2bandit_b.png","70","test","","","","","","","","","1","","","","","","","","","","",""
"null","","1612161","SARL_v6yyllsbjc","msl000118","fixation","","","img/fixation.png","null","","","test","","","","","","","","","","","","","","","","","","","",""
"434","","1612602","SARL_v6yyllsbjc","msl000118","freq","","","img/orange_2bandit_b2.png","70","","70","test","1","","","circle","square","19","19","19","1","1","","","","","","","","","",""
"null","","1612973","SARL_v6yyllsbjc","msl000118","freq_resp","","","img/orange_2bandit_b.png","70","img/orange_2bandit_b.png","70","test","","","","","","","","","1","","","","","","","","","","",""
"null","","1613129","SARL_v6yyllsbjc","msl000118","fixation","","","img/fixation.png","null","","","test","","","","","","","","","","","","","","","","","","","",""
"269","","1613402","SARL_v6yyllsbjc","msl000118","freq","","","img/orange_2bandit_b2.png","70","","70","test","1","","","circle","square","20","20","20","1","1","","","","","","","","","",""
"null","","1613940","SARL_v6yyllsbjc","msl000118","freq_resp","","","img/orange_2bandit_b.png","70","img/orange_2bandit_b.png","70","test","","","","","","","","","1","","","","","","","","","","",""
"null","","1614096","SARL_v6yyllsbjc","msl000118","fixation","","","img/fixation.png","null","","","test","","","","","","","","","","","","","","","","","","","",""
"442","","1614542","SARL_v6yyllsbjc","msl000118","freq","","","img/orange_2bandit_b2.png","70","","70","test","1","","","circle","square","21","21","21","1","1","","","","","","","","","",""
"null","","1614906","SARL_v6yyllsbjc","msl000118","freq_resp","","","img/orange_2bandit_b.png","70","img/orange_2bandit_b.png","70","test","","","","","","","","","1","","","","","","","","","","",""
"null","","1615061","SARL_v6yyllsbjc","msl000118","fixation","","","img/fixation.png","null","","","test","","","","","","","","","","","","","","","","","","","",""
"372","","1615438","SARL_v6yyllsbjc","msl000118","freq","","","img/orange_2bandit_b2.png","70","","70","test","1","","","circle","square","22","22","22","1","1","","","","","","","","","",""
"null","","1615872","SARL_v6yyllsbjc","msl000118","freq_resp","","","img/orange_2bandit_b.png","70","img/orange_2bandit_b.png","70","test","","","","","","","","","1","","","","","","","","","","",""
"null","","1616027","SARL_v6yyllsbjc","msl000118","fixation","","","img/fixation.png","null","","","test","","","","","","","","","","","","","","","","","","","",""
"394","","1616426","SARL_v6yyllsbjc","msl000118","freq","","","img/orange_2bandit_b2.png","70","","70","test","1","","","circle","square","23","23","23","1","1","","","","","","","","","",""
"null","","1616837","SARL_v6yyllsbjc","msl000118","freq_resp","","","img/orange_2bandit_b.png","70","img/orange_2bandit_b.png","70","test","","","","","","","","","1","","","","","","","","","","",""
"null","","1616992","SARL_v6yyllsbjc","msl000118","fixation","","","img/fixation.png","null","","","test","","","","","","","","","","","","","","","","","","","",""
"764","","1617761","SARL_v6yyllsbjc","msl000118","rl","","","img/black_2bandit_b2.png","75","","0","test","","","0","circle","square","24","","0","1","","75","0.8","0.2","0.3236202082407196","0.8","0.2","0.2","square","1","0"
"null","","1618517","SARL_v6yyllsbjc","msl000118","feedback","","","img/boo_R_b.png","null","","na","test","","","","","","","","","1","","75","0.8","0.2","","","","0.2","","1",""
"null","","1619323","SARL_v6yyllsbjc","msl000118","freq","","","img/orange_2bandit_b2.png","null","","70","test","0","","","circle","square","25","24","1","2","0.9583333333333334","","","","","","","","","",""
"null","","1619479","SARL_v6yyllsbjc","msl000118","fixation","","","img/fixation.png","null","","","test","","","","","","","","","","","","","","","","","","","",""
"187","","1619671","SARL_v6yyllsbjc","msl000118","freq","","","img/orange_2bandit_b2.png","70","","70","test","1","","","circle","square","26","25","2","2","0.96","","","","","","","","","",""
"null","","1620290","SARL_v6yyllsbjc","msl000118","freq_resp","","","img/orange_2bandit_b.png","70","img/orange_2bandit_b.png","70","test","","","","","","","","","2","","","","","","","","","","",""
"null","","1620445","SARL_v6yyllsbjc","msl000118","fixation","","","img/fixation.png","null","","","test","","","","","","","","","","","","","","","","","","","",""
"303","","1620755","SARL_v6yyllsbjc","msl000118","freq","","","img/orange_2bandit_b2.png","70","","70","test","1","","","circle","square","27","26","3","2","0.9615384615384616","","","","","","","","","",""
"null","","1621258","SARL_v6yyllsbjc","msl000118","freq_resp","","","img/orange_2bandit_b.png","70","img/orange_2bandit_b.png","70","test","","","","","","","","","2","","","","","","","","","","",""
"null","","1621414","SARL_v6yyllsbjc","msl000118","fixation","","","img/fixation.png","null","","","test","","","","","","","","","","","","","","","","","","","",""
"335","","1621753","SARL_v6yyllsbjc","msl000118","freq","","","img/orange_2bandit_b2.png","70","","70","test","1","","","circle","square","28","27","4","2","0.9629629629629629","","","","","","","","","",""
"null","","1622224","SARL_v6yyllsbjc","msl000118","freq_resp","","","img/orange_2bandit_b.png","70","img/orange_2bandit_b.png","70","test","","","","","","","","","2","","","","","","","","","","",""
"null","","1622379","SARL_v6yyllsbjc","msl000118","fixation","","","img/fixation.png","null","","","test","","","","","","","","","","","","","","","","","","","",""
"420","","1622805","SARL_v6yyllsbjc","msl000118","infreq","","","img/green_2bandit_b2.png","68","","68","test","1","","","circle","square","29","28","5","2","0.9642857142857143","","","","","","","","","",""
"null","","1623190","SARL_v6yyllsbjc","msl000118","infreq_resp","","","img/green_2bandit_b.png","68","img/green_2bandit_b.png","68","test","","","","","","","","","2","","","","","","","","","","",""
"null","","1623345","SARL_v6yyllsbjc","msl000118","fixation","","","img/fixation.png","null","","","test","","","","","","","","","","","","","","","","","","","",""
"400","","1623751","SARL_v6yyllsbjc","msl000118","freq","","","img/orange_2bandit_b2.png","70","","70","test","1","","","circle","square","30","29","6","2","0.9655172413793104","","","","","","","","","",""
"null","","1624157","SARL_v6yyllsbjc","msl000118","freq_resp","","","img/orange_2bandit_b.png","70","img/orange_2bandit_b.png","70","test","","","","","","","","","2","","","","","","","","","","",""
"null","","1624312","SARL_v6yyllsbjc","msl000118","fixation","","","img/fixation.png","null","","","test","","","","","","","","","","","","","","","","","","","",""
"399","","1624715","SARL_v6yyllsbjc","msl000118","freq","","","img/orange_2bandit_b2.png","70","","70","test","1","","","circle","square","31","30","7","2","0.9666666666666667","","","","","","","","","",""
"null","","1625123","SARL_v6yyllsbjc","msl000118","freq_resp","","","img/orange_2bandit_b.png","70","img/orange_2bandit_b.png","70","test","","","","","","","","","2","","","","","","","","","","",""
"null","","1625279","SARL_v6yyllsbjc","msl000118","fixation","","","img/fixation.png","null","","","test","","","","","","","","","","","","","","","","","","","",""
"null","","1626085","SARL_v6yyllsbjc","msl000118","freq","","","img/orange_2bandit_b2.png","null","","70","test","0","","","circle","square","32","31","8","2","0.9354838709677419","","","","","","","","","",""
"null","","1626241","SARL_v6yyllsbjc","msl000118","fixation","","","img/fixation.png","null","","","test","","","","","","","","","","","","","","","","","","","",""
"434","","1626678","SARL_v6yyllsbjc","msl000118","freq","","","img/orange_2bandit_b2.png","70","","70","test","1","","","circle","square","33","32","9","2","0.9375","","","","","","","","","",""
"null","","1627051","SARL_v6yyllsbjc","msl000118","freq_resp","","","img/orange_2bandit_b.png","70","img/orange_2bandit_b.png","70","test","","","","","","","","","2","","","","","","","","","","",""
"null","","1627206","SARL_v6yyllsbjc","msl000118","fixation","","","img/fixation.png","null","","","test","","","","","","","","","","","","","","","","","","","",""
"393","","1627604","SARL_v6yyllsbjc","msl000118","freq","","","img/orange_2bandit_b2.png","70","","70","test","1","","","circle","square","34","33","10","2","0.9393939393939394","","","","","","","","","",""
"null","","1628016","SARL_v6yyllsbjc","msl000118","freq_resp","","","img/orange_2bandit_b.png","70","img/orange_2bandit_b.png","70","test","","","","","","","","","2","","","","","","","","","","",""
"null","","1628172","SARL_v6yyllsbjc","msl000118","fixation","","","img/fixation.png","null","","","test","","","","","","","","","","","","","","","","","","","",""
"487","","1628665","SARL_v6yyllsbjc","msl000118","freq","","","img/orange_2bandit_b2.png","70","","70","test","1","","","circle","square","35","34","11","2","0.9411764705882353","","","","","","","","","",""
"null","","1628982","SARL_v6yyllsbjc","msl000118","freq_resp","","","img/orange_2bandit_b.png","70","img/orange_2bandit_b.png","70","test","","","","","","","","","2","","","","","","","","","","",""
"null","","1629138","SARL_v6yyllsbjc","msl000118","fixation","","","img/fixation.png","null","","","test","","","","","","","","","","","","","","","","","","","",""
"313","","1629456","SARL_v6yyllsbjc","msl000118","freq","","","img/orange_2bandit_b2.png","70","","70","test","1","","","circle","square","36","35","12","2","0.9428571428571428","","","","","","","","","",""
"null","","1629948","SARL_v6yyllsbjc","msl000118","freq_resp","","","img/orange_2bandit_b.png","70","img/orange_2bandit_b.png","70","test","","","","","","","","","2","","","","","","","","","","",""
"null","","1630104","SARL_v6yyllsbjc","msl000118","fixation","","","img/fixation.png","null","","","test","","","","","","","","","","","","","","","","","","","",""
"417","","1630526","SARL_v6yyllsbjc","msl000118","freq","","","img/orange_2bandit_b2.png","70","","70","test","1","","","circle","square","37","36","13","2","0.9444444444444444","","","","","","","","","",""
"null","","1630916","SARL_v6yyllsbjc","msl000118","freq_resp","","","img/orange_2bandit_b.png","70","img/orange_2bandit_b.png","70","test","","","","","","","","","2","","","","","","","","","","",""
"null","","1631071","SARL_v6yyllsbjc","msl000118","fixation","","","img/fixation.png","null","","","test","","","","","","","","","","","","","","","","","","","",""
"469","","1631546","SARL_v6yyllsbjc","msl000118","infreq","","","img/green_2bandit_b2.png","68","","68","test","1","","","circle","square","38","37","14","2","0.9459459459459459","","","","","","","","","",""
"null","","1631883","SARL_v6yyllsbjc","msl000118","infreq_resp","","","img/green_2bandit_b.png","68","img/green_2bandit_b.png","68","test","","","","","","","","","2","","","","","","","","","","",""
"null","","1632038","SARL_v6yyllsbjc","msl000118","fixation","","","img/fixation.png","null","","","test","","","","","","","","","","","","","","","","","","","",""
"525","","1632569","SARL_v6yyllsbjc","msl000118","freq","","","img/orange_2bandit_b2.png","70","","70","test","1","","","circle","square","39","38","15","2","0.9473684210526315","","","","","","","","","",""
"null","","1632850","SARL_v6yyllsbjc","msl000118","freq_resp","","","img/orange_2bandit_b.png","70","img/orange_2bandit_b.png","70","test","","","","","","","","","2","","","","","","","","","","",""
"null","","1633006","SARL_v6yyllsbjc","msl000118","fixation","","","img/fixation.png","null","","","test","","","","","","","","","","","","","","","","","","","",""
"387","","1633398","SARL_v6yyllsbjc","msl000118","freq","","","img/orange_2bandit_b2.png","70","","70","test","1","","","circle","square","40","39","16","2","0.9487179487179487","","","","","","","","","",""
"null","","1633818","SARL_v6yyllsbjc","msl000118","freq_resp","","","img/orange_2bandit_b.png","70","img/orange_2bandit_b.png","70","test","","","","","","","","","2","","","","","","","","","","",""
"null","","1633972","SARL_v6yyllsbjc","msl000118","fixation","","","img/fixation.png","null","","","test","","","","","","","","","","","","","","","","","","","",""
"348","","1634326","SARL_v6yyllsbjc","msl000118","freq","","","img/orange_2bandit_b2.png","70","","70","test","1","","","circle","square","41","40","17","2","0.95","","","","","","","","","",""
"null","","1634784","SARL_v6yyllsbjc","msl000118","freq_resp","","","img/orange_2bandit_b.png","70","img/orange_2bandit_b.png","70","test","","","","","","","","","2","","","","","","","","","","",""
"null","","1634940","SARL_v6yyllsbjc","msl000118","fixation","","","img/fixation.png","null","","","test","","","","","","","","","","","","","","","","","","","",""
"291","","1635235","SARL_v6yyllsbjc","msl000118","freq","","","img/orange_2bandit_b2.png","70","","70","test","1","","","circle","square","42","41","18","2","0.9512195121951219","","","","","","","","","",""
"null","","1635751","SARL_v6yyllsbjc","msl000118","freq_resp","","","img/orange_2bandit_b.png","70","img/orange_2bandit_b.png","70","test","","","","","","","","","2","","","","","","","","","","",""
"null","","1635907","SARL_v6yyllsbjc","msl000118","fixation","","","img/fixation.png","null","","","test","","","","","","","","","","","","","","","","","","","",""
"294","","1636204","SARL_v6yyllsbjc","msl000118","infreq","","","img/green_2bandit_b2.png","70","","68","test","0","","","circle","square","43","42","19","2","0.9285714285714286","","","","","","","","","",""
"null","","1636715","SARL_v6yyllsbjc","msl000118","infreq_resp","","","img/green_2bandit_b.png","70","img/green_2bandit_b.png","68","test","","","","","","","","","2","","","","","","","","","","",""
"null","","1636871","SARL_v6yyllsbjc","msl000118","fixation","","","img/fixation.png","null","","","test","","","","","","","","","","","","","","","","","","","",""
"645","","1637520","SARL_v6yyllsbjc","msl000118","freq","","","img/orange_2bandit_b2.png","70","","70","test","1","","","circle","square","44","43","20","2","0.9302325581395349","","","","","","","","","",""
"null","","1637681","SARL_v6yyllsbjc","msl000118","freq_resp","","","img/orange_2bandit_b.png","70","img/orange_2bandit_b.png","70","test","","","","","","","","","2","","","","","","","","","","",""
"null","","1637836","SARL_v6yyllsbjc","msl000118","fixation","","","img/fixation.png","null","","","test","","","","","","","","","","","","","","","","","","","",""
"497","","1638338","SARL_v6yyllsbjc","msl000118","freq","","","img/orange_2bandit_b2.png","70","","70","test","1","","","circle","square","45","44","21","2","0.9318181818181818","","","","","","","","","",""
"null","","1638647","SARL_v6yyllsbjc","msl000118","freq_resp","","","img/orange_2bandit_b.png","70","img/orange_2bandit_b.png","70","test","","","","","","","","","2","","","","","","","","","","",""
"null","","1638802","SARL_v6yyllsbjc","msl000118","fixation","","","img/fixation.png","null","","","test","","","","","","","","","","","","","","","","","","","",""
"419","","1639227","SARL_v6yyllsbjc","msl000118","freq","","","img/orange_2bandit_b2.png","70","","70","test","1","","","circle","square","46","45","22","2","0.9333333333333333","","","","","","","","","",""
"null","","1639614","SARL_v6yyllsbjc","msl000118","freq_resp","","","img/orange_2bandit_b.png","70","img/orange_2bandit_b.png","70","test","","","","","","","","","2","","","","","","","","","","",""
"null","","1639769","SARL_v6yyllsbjc","msl000118","fixation","","","img/fixation.png","null","","","test","","","","","","","","","","","","","","","","","","","",""
"730","","1640505","SARL_v6yyllsbjc","msl000118","rl","","","img/black_2bandit_b2.png","75","","0","test","","","0","circle","square","47","","0","2","","75","0.8","0.2","0.34459111830793565","0.8","0.2","0.2","square","2","0"
"null","","1641260","SARL_v6yyllsbjc","msl000118","feedback","","","img/boo_R_b.png","null","","na","test","","","","","","","","","2","","75","0.8","0.2","","","","0.2","","2",""
"null","","1642066","SARL_v6yyllsbjc","msl000118","freq","","","img/orange_2bandit_b2.png","null","","70","test","0","","","circle","square","48","46","1","3","0.9130434782608695","","","","","","","","","",""
"null","","1642221","SARL_v6yyllsbjc","msl000118","fixation","","","img/fixation.png","null","","","test","","","","","","","","","","","","","","","","","","","",""
"274","","1642501","SARL_v6yyllsbjc","msl000118","freq","","","img/orange_2bandit_b2.png","70","","70","test","1","","","circle","square","49","47","2","3","0.9148936170212766","","","","","","","","","",""
"null","","1643033","SARL_v6yyllsbjc","msl000118","freq_resp","","","img/orange_2bandit_b.png","70","img/orange_2bandit_b.png","70","test","","","","","","","","","3","","","","","","","","","","",""
"null","","1643189","SARL_v6yyllsbjc","msl000118","fixation","","","img/fixation.png","null","","","test","","","","","","","","","","","","","","","","","","","",""
"347","","1643541","SARL_v6yyllsbjc","msl000118","freq","","","img/orange_2bandit_b2.png","70","","70","test","1","","","circle","square","50","48","3","3","0.9166666666666666","","","","","","","","","",""
"null","","1643999","SARL_v6yyllsbjc","msl000118","freq_resp","","","img/orange_2bandit_b.png","70","img/orange_2bandit_b.png","70","test","","","","","","","","","3","","","","","","","","","","",""
"null","","1644154","SARL_v6yyllsbjc","msl000118","fixation","","","img/fixation.png","null","","","test","","","","","","","","","","","","","","","","","","","",""
"431","","1644591","SARL_v6yyllsbjc","msl000118","freq","","","img/orange_2bandit_b2.png","70","","70","test","1","","","circle","square","51","49","4","3","0.9183673469387755","","","","","","","","","",""
"null","","1644965","SARL_v6yyllsbjc","msl000118","freq_resp","","","img/orange_2bandit_b.png","70","img/orange_2bandit_b.png","70","test","","","","","","","","","3","","","","","","","","","","",""
"null","","1645121","SARL_v6yyllsbjc","msl000118","fixation","","","img/fixation.png","null","","","test","","","","","","","","","","","","","","","","","","","",""
"606","","1645730","SARL_v6yyllsbjc","msl000118","freq","","","img/orange_2bandit_b2.png","68","","70","test","0","","","circle","square","52","50","5","3","0.9","","","","","","","","","",""
"null","","1645929","SARL_v6yyllsbjc","msl000118","freq_resp","","","img/orange_2bandit_b.png","68","img/orange_2bandit_b.png","70","test","","","","","","","","","3","","","","","","","","","","",""
"null","","1646085","SARL_v6yyllsbjc","msl000118","fixation","","","img/fixation.png","null","","","test","","","","","","","","","","","","","","","","","","","",""
"601","","1646690","SARL_v6yyllsbjc","msl000118","freq","","","img/orange_2bandit_b2.png","70","","70","test","1","","","circle","square","53","51","6","3","0.9019607843137255","","","","","","","","","",""
"null","","1646895","SARL_v6yyllsbjc","msl000118","freq_resp","","","img/orange_2bandit_b.png","70","img/orange_2bandit_b.png","70","test","","","","","","","","","3","","","","","","","","","","",""
"null","","1647050","SARL_v6yyllsbjc","msl000118","fixation","","","img/fixation.png","null","","","test","","","","","","","","","","","","","","","","","","","",""
"512","","1647568","SARL_v6yyllsbjc","msl000118","infreq","","","img/green_2bandit_b2.png","68","","68","test","1","","","circle","square","54","52","7","3","0.9038461538461539","","","","","","","","","",""
"null","","1647862","SARL_v6yyllsbjc","msl000118","infreq_resp","","","img/green_2bandit_b.png","68","img/green_2bandit_b.png","68","test","","","","","","","","","3","","","","","","","","","","",""
"null","","1648018","SARL_v6yyllsbjc","msl000118","fixation","","","img/fixation.png","null","","","test","","","","","","","","","","","","","","","","","","","",""
"625","","1648648","SARL_v6yyllsbjc","msl000118","freq","","","img/orange_2bandit_b2.png","70","","70","test","1","","","circle","square","55","53","8","3","0.9056603773584906","","","","","","","","","",""
"null","","1648827","SARL_v6yyllsbjc","msl000118","freq_resp","","","img/orange_2bandit_b.png","70","img/orange_2bandit_b.png","70","test","","","","","","","","","3","","","","","","","","","","",""
"null","","1648983","SARL_v6yyllsbjc","msl000118","fixation","","","img/fixation.png","null","","","test","","","","","","","","","","","","","","","","","","","",""
"390","","1649376","SARL_v6yyllsbjc","msl000118","freq","","","img/orange_2bandit_b2.png","70","","70","test","1","","","circle","square","56","54","9","3","0.9074074074074074","","","","","","","","","",""
"null","","1649793","SARL_v6yyllsbjc","msl000118","freq_resp","","","img/orange_2bandit_b.png","70","img/orange_2bandit_b.png","70","test","","","","","","","","","3","","","","","","","","","","",""
"null","","1649948","SARL_v6yyllsbjc","msl000118","fixation","","","img/fixation.png","null","","","test","","","","","","","","","","","","","","","","","","","",""
"362","","1650315","SARL_v6yyllsbjc","msl000118","freq","","","img/orange_2bandit_b2.png","70","","70","test","1","","","circle","square","57","55","10","3","0.9090909090909091","","","","","","","","","",""
"null","","1650759","SARL_v6yyllsbjc","msl000118","freq_resp","","","img/orange_2bandit_b.png","70","img/orange_2bandit_b.png","70","test","","","","","","","","","3","","","","","","","","","","",""
"null","","1650915","SARL_v6yyllsbjc","msl000118","fixation","","","img/fixation.png","null","","","test","","","","","","","","","","","","","","","","","","","",""
"409","","1651329","SARL_v6yyllsbjc","msl000118","freq","","","img/orange_2bandit_b2.png","70","","70","test","1","","","circle","square","58","56","11","3","0.9107142857142857","","","","","","","","","",""
"null","","1651725","SARL_v6yyllsbjc","msl000118","freq_resp","","","img/orange_2bandit_b.png","70","img/orange_2bandit_b.png","70","test","","","","","","","","","3","","","","","","","","","","",""
"null","","1651881","SARL_v6yyllsbjc","msl000118","fixation","","","img/fixation.png","null","","","test","","","","","","","","","","","","","","","","","","","",""
"316","","1652202","SARL_v6yyllsbjc","msl000118","freq","","","img/orange_2bandit_b2.png","70","","70","test","1","","","circle","square","59","57","12","3","0.9122807017543859","","","","","","","","","",""
"null","","1652692","SARL_v6yyllsbjc","msl000118","freq_resp","","","img/orange_2bandit_b.png","70","img/orange_2bandit_b.png","70","test","","","","","","","","","3","","","","","","","","","","",""
"null","","1652846","SARL_v6yyllsbjc","msl000118","fixation","","","img/fixation.png","null","","","test","","","","","","","","","","","","","","","","","","","",""
"314","","1653165","SARL_v6yyllsbjc","msl000118","freq","","","img/orange_2bandit_b2.png","70","","70","test","1","","","circle","square","60","58","13","3","0.9137931034482759","","","","","","","","","",""
"null","","1653657","SARL_v6yyllsbjc","msl000118","freq_resp","","","img/orange_2bandit_b.png","70","img/orange_2bandit_b.png","70","test","","","","","","","","","3","","","","","","","","","","",""
"null","","1653812","SARL_v6yyllsbjc","msl000118","fixation","","","img/fixation.png","null","","","test","","","","","","","","","","","","","","","","","","","",""
"465","","1654283","SARL_v6yyllsbjc","msl000118","freq","","","img/orange_2bandit_b2.png","70","","70","test","1","","","circle","square","61","59","14","3","0.9152542372881356","","","","","","","","","",""
"null","","1654624","SARL_v6yyllsbjc","msl000118","freq_resp","","","img/orange_2bandit_b.png","70","img/orange_2bandit_b.png","70","test","","","","","","","","","3","","","","","","","","","","",""
"null","","1654779","SARL_v6yyllsbjc","msl000118","fixation","","","img/fixation.png","null","","","test","","","","","","","","","","","","","","","","","","","",""
"387","","1655169","SARL_v6yyllsbjc","msl000118","infreq","","","img/green_2bandit_b2.png","68","","68","test","1","","","circle","square","62","60","15","3","0.9166666666666666","","","","","","","","","",""
"null","","1655588","SARL_v6yyllsbjc","msl000118","infreq_resp","","","img/green_2bandit_b.png","68","img/green_2bandit_b.png","68","test","","","","","","","","","3","","","","","","","","","","",""
"null","","1655743","SARL_v6yyllsbjc","msl000118","fixation","","","img/fixation.png","null","","","test","","","","","","","","","","","","","","","","","","","",""
"326","","1656073","SARL_v6yyllsbjc","msl000118","freq","","","img/orange_2bandit_b2.png","70","","70","test","1","","","circle","square","63","61","16","3","0.9180327868852459","","","","","","","","","",""
"null","","1656554","SARL_v6yyllsbjc","msl000118","freq_resp","","","img/orange_2bandit_b.png","70","img/orange_2bandit_b.png","70","test","","","","","","","","","3","","","","","","","","","","",""
"null","","1656709","SARL_v6yyllsbjc","msl000118","fixation","","","img/fixation.png","null","","","test","","","","","","","","","","","","","","","","","","","",""
"299","","1657013","SARL_v6yyllsbjc","msl000118","freq","","","img/orange_2bandit_b2.png","70","","70","test","1","","","circle","square","64","62","17","3","0.9193548387096774","","","","","","","","","",""
"null","","1657519","SARL_v6yyllsbjc","msl000118","freq_resp","","","img/orange_2bandit_b.png","70","img/orange_2bandit_b.png","70","test","","","","","","","","","3","","","","","","","","","","",""
"null","","1657675","SARL_v6yyllsbjc","msl000118","fixation","","","img/fixation.png","null","","","test","","","","","","","","","","","","","","","","","","","",""
"385","","1658065","SARL_v6yyllsbjc","msl000118","freq","","","img/orange_2bandit_b2.png","70","","70","test","1","","","circle","square","65","63","18","3","0.9206349206349206","","","","","","","","","",""
"null","","1658484","SARL_v6yyllsbjc","msl000118","freq_resp","","","img/orange_2bandit_b.png","70","img/orange_2bandit_b.png","70","test","","","","","","","","","3","","","","","","","","","","",""
"null","","1658640","SARL_v6yyllsbjc","msl000118","fixation","","","img/fixation.png","null","","","test","","","","","","","","","","","","","","","","","","","",""
"331","","1658976","SARL_v6yyllsbjc","msl000118","freq","","","img/orange_2bandit_b2.png","70","","70","test","1","","","circle","square","66","64","19","3","0.921875","","","","","","","","","",""
"null","","1659451","SARL_v6yyllsbjc","msl000118","freq_resp","","","img/orange_2bandit_b.png","70","img/orange_2bandit_b.png","70","test","","","","","","","","","3","","","","","","","","","","",""
"null","","1659606","SARL_v6yyllsbjc","msl000118","fixation","","","img/fixation.png","null","","","test","","","","","","","","","","","","","","","","","","","",""
"411","","1660020","SARL_v6yyllsbjc","msl000118","freq","","","img/orange_2bandit_b2.png","70","","70","test","1","","","circle","square","67","65","20","3","0.9230769230769231","","","","","","","","","",""
"null","","1660416","SARL_v6yyllsbjc","msl000118","freq_resp","","","img/orange_2bandit_b.png","70","img/orange_2bandit_b.png","70","test","","","","","","","","","3","","","","","","","","","","",""
"null","","1660572","SARL_v6yyllsbjc","msl000118","fixation","","","img/fixation.png","null","","","test","","","","","","","","","","","","","","","","","","","",""
"744","","1661322","SARL_v6yyllsbjc","msl000118","rl","","","img/black_2bandit_b2.png","74","","0","test","","","1","circle","square","68","","0","3","","74","0.8","0.2","0.2093060053228193","0.8","0.2","0.8","circle","3","0"
"null","","1662078","SARL_v6yyllsbjc","msl000118","feedback","","","img/yay_L_b.png","null","","na","test","","","","","","","","","3","","74","0.8","0.2","","","","0.8","","3",""
"null","","1662884","SARL_v6yyllsbjc","msl000118","freq","","","img/orange_2bandit_b2.png","null","","70","test","0","","","circle","square","69","66","1","4","0.9090909090909091","","","","","","","","","",""
"null","","1663039","SARL_v6yyllsbjc","msl000118","fixation","","","img/fixation.png","null","","","test","","","","","","","","","","","","","","","","","","","",""
"618","","1663661","SARL_v6yyllsbjc","msl000118","freq","","","img/orange_2bandit_b2.png","70","","70","test","1","","","circle","square","70","67","2","4","0.9104477611940298","","","","","","","","","",""
"null","","1663850","SARL_v6yyllsbjc","msl000118","freq_resp","","","img/orange_2bandit_b.png","70","img/orange_2bandit_b.png","70","test","","","","","","","","","4","","","","","","","","","","",""
"null","","1664005","SARL_v6yyllsbjc","msl000118","fixation","","","img/fixation.png","null","","","test","","","","","","","","","","","","","","","","","","","",""
"529","","1664540","SARL_v6yyllsbjc","msl000118","infreq","","","img/green_2bandit_b2.png","68","","68","test","1","","","circle","square","71","68","3","4","0.9117647058823529","","","","","","","","","",""
"null","","1664816","SARL_v6yyllsbjc","msl000118","infreq_resp","","","img/green_2bandit_b.png","68","img/green_2bandit_b.png","68","test","","","","","","","","","4","","","","","","","","","","",""
"null","","1664972","SARL_v6yyllsbjc","msl000118","fixation","","","img/fixation.png","null","","","test","","","","","","","","","","","","","","","","","","","",""
"633","","1665610","SARL_v6yyllsbjc","msl000118","freq","","","img/orange_2bandit_b2.png","70","","70","test","1","","","circle","square","72","69","4","4","0.9130434782608695","","","","","","","","","",""
"null","","1665782","SARL_v6yyllsbjc","msl000118","freq_resp","","","img/orange_2bandit_b.png","70","img/orange_2bandit_b.png","70","test","","","","","","","","","4","","","","","","","","","","",""
"null","","1665938","SARL_v6yyllsbjc","msl000118","fixation","","","img/fixation.png","null","","","test","","","","","","","","","","","","","","","","","","","",""
"472","","1666414","SARL_v6yyllsbjc","msl000118","freq","","","img/orange_2bandit_b2.png","70","","70","test","1","","","circle","square","73","70","5","4","0.9142857142857143","","","","","","","","","",""
"null","","1666748","SARL_v6yyllsbjc","msl000118","freq_resp","","","img/orange_2bandit_b.png","70","img/orange_2bandit_b.png","70","test","","","","","","","","","4","","","","","","","","","","",""
"null","","1666905","SARL_v6yyllsbjc","msl000118","fixation","","","img/fixation.png","null","","","test","","","","","","","","","","","","","","","","","","","",""
"609","","1667519","SARL_v6yyllsbjc","msl000118","infreq","","","img/green_2bandit_b2.png","68","","68","test","1","","","circle","square","74","71","6","4","0.9154929577464789","","","","","","","","","",""
"null","","1667716","SARL_v6yyllsbjc","msl000118","infreq_resp","","","img/green_2bandit_b.png","68","img/green_2bandit_b.png","68","test","","","","","","","","","4","","","","","","","","","","",""
"null","","1667872","SARL_v6yyllsbjc","msl000118","fixation","","","img/fixation.png","null","","","test","","","","","","","","","","","","","","","","","","","",""
"404","","1668281","SARL_v6yyllsbjc","msl000118","freq","","","img/orange_2bandit_b2.png","70","","70","test","1","","","circle","square","75","72","7","4","0.9166666666666666","","","","","","","","","",""
"null","","1668683","SARL_v6yyllsbjc","msl000118","freq_resp","","","img/orange_2bandit_b.png","70","img/orange_2bandit_b.png","70","test","","","","","","","","","4","","","","","","","","","","",""
"null","","1668838","SARL_v6yyllsbjc","msl000118","fixation","","","img/fixation.png","null","","","test","","","","","","","","","","","","","","","","","","","",""
"348","","1669190","SARL_v6yyllsbjc","msl000118","freq","","","img/orange_2bandit_b2.png","70","","70","test","1","","","circle","square","76","73","8","4","0.9178082191780822","","","","","","","","","",""
"null","","1669647","SARL_v6yyllsbjc","msl000118","freq_resp","","","img/orange_2bandit_b.png","70","img/orange_2bandit_b.png","70","test","","","","","","","","","4","","","","","","","","","","",""
"null","","1669803","SARL_v6yyllsbjc","msl000118","fixation","","","img/fixation.png","null","","","test","","","","","","","","","","","","","","","","","","","",""
"288","","1670097","SARL_v6yyllsbjc","msl000118","freq","","","img/orange_2bandit_b2.png","70","","70","test","1","","","circle","square","77","74","9","4","0.918918918918919","","","","","","","","","",""
"null","","1670614","SARL_v6yyllsbjc","msl000118","freq_resp","","","img/orange_2bandit_b.png","70","img/orange_2bandit_b.png","70","test","","","","","","","","","4","","","","","","","","","","",""
"null","","1670768","SARL_v6yyllsbjc","msl000118","fixation","","","img/fixation.png","null","","","test","","","","","","","","","","","","","","","","","","","",""
"490","","1671263","SARL_v6yyllsbjc","msl000118","freq","","","img/orange_2bandit_b2.png","70","","70","test","1","","","circle","square","78","75","10","4","0.92","","","","","","","","","",""
"null","","1671579","SARL_v6yyllsbjc","msl000118","freq_resp","","","img/orange_2bandit_b.png","70","img/orange_2bandit_b.png","70","test","","","","","","","","","4","","","","","","","","","","",""
"null","","1671735","SARL_v6yyllsbjc","msl000118","fixation","","","img/fixation.png","null","","","test","","","","","","","","","","","","","","","","","","","",""
"397","","1672139","SARL_v6yyllsbjc","msl000118","freq","","","img/orange_2bandit_b2.png","70","","70","test","1","","","circle","square","79","76","11","4","0.9210526315789473","","","","","","","","","",""
"null","","1672547","SARL_v6yyllsbjc","msl000118","freq_resp","","","img/orange_2bandit_b.png","70","img/orange_2bandit_b.png","70","test","","","","","","","","","4","","","","","","","","","","",""
"null","","1672703","SARL_v6yyllsbjc","msl000118","fixation","","","img/fixation.png","null","","","test","","","","","","","","","","","","","","","","","","","",""
"312","","1673019","SARL_v6yyllsbjc","msl000118","freq","","","img/orange_2bandit_b2.png","70","","70","test","1","","","circle","square","80","77","12","4","0.922077922077922","","","","","","","","","",""
"null","","1673513","SARL_v6yyllsbjc","msl000118","freq_resp","","","img/orange_2bandit_b.png","70","img/orange_2bandit_b.png","70","test","","","","","","","","","4","","","","","","","","","","",""
"null","","1673669","SARL_v6yyllsbjc","msl000118","fixation","","","img/fixation.png","null","","","test","","","","","","","","","","","","","","","","","","","",""
"391","","1674065","SARL_v6yyllsbjc","msl000118","freq","","","img/orange_2bandit_b2.png","70","","70","test","1","","","circle","square","81","78","13","4","0.9230769230769231","","","","","","","","","",""
"null","","1674479","SARL_v6yyllsbjc","msl000118","freq_resp","","","img/orange_2bandit_b.png","70","img/orange_2bandit_b.png","70","test","","","","","","","","","4","","","","","","","","","","",""
"null","","1674634","SARL_v6yyllsbjc","msl000118","fixation","","","img/fixation.png","null","","","test","","","","","","","","","","","","","","","","","","","",""
"456","","1675097","SARL_v6yyllsbjc","msl000118","freq","","","img/orange_2bandit_b2.png","70","","70","test","1","","","circle","square","82","79","14","4","0.9240506329113924","","","","","","","","","",""
"null","","1675446","SARL_v6yyllsbjc","msl000118","freq_resp","","","img/orange_2bandit_b.png","70","img/orange_2bandit_b.png","70","test","","","","","","","","","4","","","","","","","","","","",""
"null","","1675601","SARL_v6yyllsbjc","msl000118","fixation","","","img/fixation.png","null","","","test","","","","","","","","","","","","","","","","","","","",""
"423","","1676028","SARL_v6yyllsbjc","msl000118","freq","","","img/orange_2bandit_b2.png","70","","70","test","1","","","circle","square","83","80","15","4","0.925","","","","","","","","","",""
"null","","1676411","SARL_v6yyllsbjc","msl000118","freq_resp","","","img/orange_2bandit_b.png","70","img/orange_2bandit_b.png","70","test","","","","","","","","","4","","","","","","","","","","",""
"null","","1676568","SARL_v6yyllsbjc","msl000118","fixation","","","img/fixation.png","null","","","test","","","","","","","","","","","","","","","","","","","",""
"345","","1676919","SARL_v6yyllsbjc","msl000118","freq","","","img/orange_2bandit_b2.png","70","","70","test","1","","","circle","square","84","81","16","4","0.9259259259259259","","","","","","","","","",""
"null","","1677380","SARL_v6yyllsbjc","msl000118","freq_resp","","","img/orange_2bandit_b.png","70","img/orange_2bandit_b.png","70","test","","","","","","","","","4","","","","","","","","","","",""
"null","","1677535","SARL_v6yyllsbjc","msl000118","fixation","","","img/fixation.png","null","","","test","","","","","","","","","","","","","","","","","","","",""
"422","","1677961","SARL_v6yyllsbjc","msl000118","infreq","","","img/green_2bandit_b2.png","68","","68","test","1","","","circle","square","85","82","17","4","0.926829268292683","","","","","","","","","",""
"null","","1678345","SARL_v6yyllsbjc","msl000118","infreq_resp","","","img/green_2bandit_b.png","68","img/green_2bandit_b.png","68","test","","","","","","","","","4","","","","","","","","","","",""
"null","","1678500","SARL_v6yyllsbjc","msl000118","fixation","","","img/fixation.png","null","","","test","","","","","","","","","","","","","","","","","","","",""
"309","","1678815","SARL_v6yyllsbjc","msl000118","freq","","","img/orange_2bandit_b2.png","70","","70","test","1","","","circle","square","86","83","18","4","0.927710843373494","","","","","","","","","",""
"null","","1679312","SARL_v6yyllsbjc","msl000118","freq_resp","","","img/orange_2bandit_b.png","70","img/orange_2bandit_b.png","70","test","","","","","","","","","4","","","","","","","","","","",""
"null","","1679467","SARL_v6yyllsbjc","msl000118","fixation","","","img/fixation.png","null","","","test","","","","","","","","","","","","","","","","","","","",""
"303","","1679776","SARL_v6yyllsbjc","msl000118","freq","","","img/orange_2bandit_b2.png","70","","70","test","1","","","circle","square","87","84","19","4","0.9285714285714286","","","","","","","","","",""
"null","","1680278","SARL_v6yyllsbjc","msl000118","freq_resp","","","img/orange_2bandit_b.png","70","img/orange_2bandit_b.png","70","test","","","","","","","","","4","","","","","","","","","","",""
"null","","1680434","SARL_v6yyllsbjc","msl000118","fixation","","","img/fixation.png","null","","","test","","","","","","","","","","","","","","","","","","","",""
"361","","1680799","SARL_v6yyllsbjc","msl000118","freq","","","img/orange_2bandit_b2.png","70","","70","test","1","","","circle","square","88","85","20","4","0.9294117647058824","","","","","","","","","",""
"null","","1681244","SARL_v6yyllsbjc","msl000118","freq_resp","","","img/orange_2bandit_b.png","70","img/orange_2bandit_b.png","70","test","","","","","","","","","4","","","","","","","","","","",""
"null","","1681400","SARL_v6yyllsbjc","msl000118","fixation","","","img/fixation.png","null","","","test","","","","","","","","","","","","","","","","","","","",""
"393","","1681798","SARL_v6yyllsbjc","msl000118","freq","","","img/orange_2bandit_b2.png","70","","70","test","1","","","circle","square","89","86","21","4","0.9302325581395349","","","","","","","","","",""
"null","","1682212","SARL_v6yyllsbjc","msl000118","freq_resp","","","img/orange_2bandit_b.png","70","img/orange_2bandit_b.png","70","test","","","","","","","","","4","","","","","","","","","","",""
"null","","1682368","SARL_v6yyllsbjc","msl000118","fixation","","","img/fixation.png","null","","","test","","","","","","","","","","","","","","","","","","","",""
"615","","1682988","SARL_v6yyllsbjc","msl000118","rl","","","img/black_2bandit_b2.png","74","","0","test","","","1","circle","square","90","","0","4","","74","0.8","0.2","0.5539004472736208","0.8","0.2","0.8","circle","4","0"
"null","","1683744","SARL_v6yyllsbjc","msl000118","feedback","","","img/yay_L_b.png","null","","na","test","","","","","","","","","4","","74","0.8","0.2","","","","0.8","","4",""
"644","","1684393","SARL_v6yyllsbjc","msl000118","freq","","","img/orange_2bandit_b2.png","70","","70","test","1","","","circle","square","91","87","1","5","0.9310344827586207","","","","","","","","","",""
"null","","1684555","SARL_v6yyllsbjc","msl000118","freq_resp","","","img/orange_2bandit_b.png","70","img/orange_2bandit_b.png","70","test","","","","","","","","","5","","","","","","","","","","",""
"null","","1684710","SARL_v6yyllsbjc","msl000118","fixation","","","img/fixation.png","null","","","test","","","","","","","","","","","","","","","","","","","",""
"456","","1685173","SARL_v6yyllsbjc","msl000118","freq","","","img/orange_2bandit_b2.png","70","","70","test","1","","","circle","square","92","88","2","5","0.9318181818181818","","","","","","","","","",""
"null","","1685523","SARL_v6yyllsbjc","msl000118","freq_resp","","","img/orange_2bandit_b.png","70","img/orange_2bandit_b.png","70","test","","","","","","","","","5","","","","","","","","","","",""
"null","","1685678","SARL_v6yyllsbjc","msl000118","fixation","","","img/fixation.png","null","","","test","","","","","","","","","","","","","","","","","","","",""
"350","","1686033","SARL_v6yyllsbjc","msl000118","freq","","","img/orange_2bandit_b2.png","70","","70","test","1","","","circle","square","93","89","3","5","0.9325842696629213","","","","","","","","","",""
"null","","1686489","SARL_v6yyllsbjc","msl000118","freq_resp","","","img/orange_2bandit_b.png","70","img/orange_2bandit_b.png","70","test","","","","","","","","","5","","","","","","","","","","",""
"null","","1686645","SARL_v6yyllsbjc","msl000118","fixation","","","img/fixation.png","null","","","test","","","","","","","","","","","","","","","","","","","",""
"285","","1686935","SARL_v6yyllsbjc","msl000118","infreq","","","img/green_2bandit_b2.png","70","","68","test","0","","","circle","square","94","90","4","5","0.9222222222222223","","","","","","","","","",""
"null","","1687456","SARL_v6yyllsbjc","msl000118","infreq_resp","","","img/green_2bandit_b.png","70","img/green_2bandit_b.png","68","test","","","","","","","","","5","","","","","","","","","","",""
"null","","1687611","SARL_v6yyllsbjc","msl000118","fixation","","","img/fixation.png","null","","","test","","","","","","","","","","","","","","","","","","","",""
"418","","1688035","SARL_v6yyllsbjc","msl000118","freq","","","img/orange_2bandit_b2.png","70","","70","test","1","","","circle","square","95","91","5","5","0.9230769230769231","","","","","","","","","",""
"null","","1688422","SARL_v6yyllsbjc","msl000118","freq_resp","","","img/orange_2bandit_b.png","70","img/orange_2bandit_b.png","70","test","","","","","","","","","5","","","","","","","","","","",""
"null","","1688578","SARL_v6yyllsbjc","msl000118","fixation","","","img/fixation.png","null","","","test","","","","","","","","","","","","","","","","","","","",""
"410","","1688994","SARL_v6yyllsbjc","msl000118","freq","","","img/orange_2bandit_b2.png","70","","70","test","1","","","circle","square","96","92","6","5","0.9239130434782609","","","","","","","","","",""
"null","","1689388","SARL_v6yyllsbjc","msl000118","freq_resp","","","img/orange_2bandit_b.png","70","img/orange_2bandit_b.png","70","test","","","","","","","","","5","","","","","","","","","","",""
"null","","1689544","SARL_v6yyllsbjc","msl000118","fixation","","","img/fixation.png","null","","","test","","","","","","","","","","","","","","","","","","","",""
"444","","1689992","SARL_v6yyllsbjc","msl000118","freq","","","img/orange_2bandit_b2.png","70","","70","test","1","","","circle","square","97","93","7","5","0.9247311827956989","","","","","","","","","",""
"null","","1690354","SARL_v6yyllsbjc","msl000118","freq_resp","","","img/orange_2bandit_b.png","70","img/orange_2bandit_b.png","70","test","","","","","","","","","5","","","","","","","","","","",""
"null","","1690510","SARL_v6yyllsbjc","msl000118","fixation","","","img/fixation.png","null","","","test","","","","","","","","","","","","","","","","","","","",""
"527","","1691042","SARL_v6yyllsbjc","msl000118","freq","","","img/orange_2bandit_b2.png","70","","70","test","1","","","circle","square","98","94","8","5","0.925531914893617","","","","","","","","","",""
"null","","1691320","SARL_v6yyllsbjc","msl000118","freq_resp","","","img/orange_2bandit_b.png","70","img/orange_2bandit_b.png","70","test","","","","","","","","","5","","","","","","","","","","",""
"null","","1691476","SARL_v6yyllsbjc","msl000118","fixation","","","img/fixation.png","null","","","test","","","","","","","","","","","","","","","","","","","",""
"408","","1691889","SARL_v6yyllsbjc","msl000118","freq","","","img/orange_2bandit_b2.png","70","","70","test","1","","","circle","square","99","95","9","5","0.9263157894736842","","","","","","","","","",""
"null","","1692286","SARL_v6yyllsbjc","msl000118","freq_resp","","","img/orange_2bandit_b.png","70","img/orange_2bandit_b.png","70","test","","","","","","","","","5","","","","","","","","","","",""
"null","","1692443","SARL_v6yyllsbjc","msl000118","fixation","","","img/fixation.png","null","","","test","","","","","","","","","","","","","","","","","","","",""
"413","","1692862","SARL_v6yyllsbjc","msl000118","freq","","","img/orange_2bandit_b2.png","70","","70","test","1","","","circle","square","100","96","10","5","0.9270833333333334","","","","","","","","","",""
"null","","1693254","SARL_v6yyllsbjc","msl000118","freq_resp","","","img/orange_2bandit_b.png","70","img/orange_2bandit_b.png","70","test","","","","","","","","","5","","","","","","","","","","",""
"null","","1693407","SARL_v6yyllsbjc","msl000118","fixation","","","img/fixation.png","null","","","test","","","","","","","","","","","","","","","","","","","",""
"432","","1693846","SARL_v6yyllsbjc","msl000118","freq","","","img/orange_2bandit_b2.png","70","","70","test","1","","","circle","square","101","97","11","5","0.9278350515463918","","","","","","","","","",""
"null","","1694219","SARL_v6yyllsbjc","msl000118","freq_resp","","","img/orange_2bandit_b.png","70","img/orange_2bandit_b.png","70","test","","","","","","","","","5","","","","","","","","","","",""
"null","","1694375","SARL_v6yyllsbjc","msl000118","fixation","","","img/fixation.png","null","","","test","","","","","","","","","","","","","","","","","","","",""
"400","","1694780","SARL_v6yyllsbjc","msl000118","infreq","","","img/green_2bandit_b2.png","68","","68","test","1","","","circle","square","102","98","12","5","0.9285714285714286","","","","","","","","","",""
"null","","1695186","SARL_v6yyllsbjc","msl000118","infreq_resp","","","img/green_2bandit_b.png","68","img/green_2bandit_b.png","68","test","","","","","","","","","5","","","","","","","","","","",""
"null","","1695341","SARL_v6yyllsbjc","msl000118","fixation","","","img/fixation.png","null","","","test","","","","","","","","","","","","","","","","","","","",""
"343","","1695689","SARL_v6yyllsbjc","msl000118","freq","","","img/orange_2bandit_b2.png","70","","70","test","1","","","circle","square","103","99","13","5","0.9292929292929293","","","","","","","","","",""
"null","","1696152","SARL_v6yyllsbjc","msl000118","freq_resp","","","img/orange_2bandit_b.png","70","img/orange_2bandit_b.png","70","test","","","","","","","","","5","","","","","","","","","","",""
"null","","1696308","SARL_v6yyllsbjc","msl000118","fixation","","","img/fixation.png","null","","","test","","","","","","","","","","","","","","","","","","","",""
"384","","1696698","SARL_v6yyllsbjc","msl000118","freq","","","img/orange_2bandit_b2.png","70","","70","test","1","","","circle","square","104","100","14","5","0.93","","","","","","","","","",""
"null","","1697119","SARL_v6yyllsbjc","msl000118","freq_resp","","","img/orange_2bandit_b.png","70","img/orange_2bandit_b.png","70","test","","","","","","","","","5","","","","","","","","","","",""
"null","","1697275","SARL_v6yyllsbjc","msl000118","fixation","","","img/fixation.png","null","","","test","","","","","","","","","","","","","","","","","","","",""
"321","","1697600","SARL_v6yyllsbjc","msl000118","freq","","","img/orange_2bandit_b2.png","70","","70","test","1","","","circle","square","105","101","15","5","0.9306930693069307","","","","","","","","","",""
"null","","1698085","SARL_v6yyllsbjc","msl000118","freq_resp","","","img/orange_2bandit_b.png","70","img/orange_2bandit_b.png","70","test","","","","","","","","","5","","","","","","","","","","",""
"null","","1698240","SARL_v6yyllsbjc","msl000118","fixation","","","img/fixation.png","null","","","test","","","","","","","","","","","","","","","","","","","",""
"310","","1698556","SARL_v6yyllsbjc","msl000118","freq","","","img/orange_2bandit_b2.png","70","","70","test","1","","","circle","square","106","102","16","5","0.9313725490196079","","","","","","","","","",""
"null","","1699052","SARL_v6yyllsbjc","msl000118","freq_resp","","","img/orange_2bandit_b.png","70","img/orange_2bandit_b.png","70","test","","","","","","","","","5","","","","","","","","","","",""
"null","","1699207","SARL_v6yyllsbjc","msl000118","fixation","","","img/fixation.png","null","","","test","","","","","","","","","","","","","","","","","","","",""
"413","","1699624","SARL_v6yyllsbjc","msl000118","freq","","","img/orange_2bandit_b2.png","70","","70","test","1","","","circle","square","107","103","17","5","0.9320388349514563","","","","","","","","","",""
"null","","1700018","SARL_v6yyllsbjc","msl000118","freq_resp","","","img/orange_2bandit_b.png","70","img/orange_2bandit_b.png","70","test","","","","","","","","","5","","","","","","","","","","",""
"null","","1700174","SARL_v6yyllsbjc","msl000118","fixation","","","img/fixation.png","null","","","test","","","","","","","","","","","","","","","","","","","",""
"388","","1700568","SARL_v6yyllsbjc","msl000118","freq","","","img/orange_2bandit_b2.png","70","","70","test","1","","","circle","square","108","104","18","5","0.9326923076923077","","","","","","","","","",""
"null","","1700987","SARL_v6yyllsbjc","msl000118","freq_resp","","","img/orange_2bandit_b.png","70","img/orange_2bandit_b.png","70","test","","","","","","","","","5","","","","","","","","","","",""
"null","","1701142","SARL_v6yyllsbjc","msl000118","fixation","","","img/fixation.png","null","","","test","","","","","","","","","","","","","","","","","","","",""
"332","","1701479","SARL_v6yyllsbjc","msl000118","infreq","","","img/green_2bandit_b2.png","68","","68","test","1","","","circle","square","109","105","19","5","0.9333333333333333","","","","","","","","","",""
"null","","1701953","SARL_v6yyllsbjc","msl000118","infreq_resp","","","img/green_2bandit_b.png","68","img/green_2bandit_b.png","68","test","","","","","","","","","5","","","","","","","","","","",""
"null","","1702109","SARL_v6yyllsbjc","msl000118","fixation","","","img/fixation.png","null","","","test","","","","","","","","","","","","","","","","","","","",""
"786","","1702900","SARL_v6yyllsbjc","msl000118","freq","","","img/orange_2bandit_b2.png","70","","70","test","1","","","circle","square","110","106","20","5","0.9339622641509434","","","","","","","","","",""
"null","","1702918","SARL_v6yyllsbjc","msl000118","freq_resp","","","img/orange_2bandit_b.png","70","img/orange_2bandit_b.png","70","test","","","","","","","","","5","","","","","","","","","","",""
"null","","1703074","SARL_v6yyllsbjc","msl000118","fixation","","","img/fixation.png","null","","","test","","","","","","","","","","","","","","","","","","","",""
"431","","1703509","SARL_v6yyllsbjc","msl000118","freq","","","img/orange_2bandit_b2.png","70","","70","test","1","","","circle","square","111","107","21","5","0.9345794392523364","","","","","","","","","",""
"null","","1703883","SARL_v6yyllsbjc","msl000118","freq_resp","","","img/orange_2bandit_b.png","70","img/orange_2bandit_b.png","70","test","","","","","","","","","5","","","","","","","","","","",""
"null","","1704039","SARL_v6yyllsbjc","msl000118","fixation","","","img/fixation.png","null","","","test","","","","","","","","","","","","","","","","","","","",""
"502","","1704545","SARL_v6yyllsbjc","msl000118","infreq","","","img/green_2bandit_b2.png","68","","68","test","1","","","circle","square","112","108","22","5","0.9351851851851852","","","","","","","","","",""
"null","","1704849","SARL_v6yyllsbjc","msl000118","infreq_resp","","","img/green_2bandit_b.png","68","img/green_2bandit_b.png","68","test","","","","","","","","","5","","","","","","","","","","",""
"null","","1705006","SARL_v6yyllsbjc","msl000118","fixation","","","img/fixation.png","null","","","test","","","","","","","","","","","","","","","","","","","",""
"343","","1705355","SARL_v6yyllsbjc","msl000118","freq","","","img/orange_2bandit_b2.png","70","","70","test","1","","","circle","square","113","109","23","5","0.9357798165137615","","","","","","","","","",""
"null","","1705817","SARL_v6yyllsbjc","msl000118","freq_resp","","","img/orange_2bandit_b.png","70","img/orange_2bandit_b.png","70","test","","","","","","","","","5","","","","","","","","","","",""
"null","","1705974","SARL_v6yyllsbjc","msl000118","fixation","","","img/fixation.png","null","","","test","","","","","","","","","","","","","","","","","","","",""
"411","","1706390","SARL_v6yyllsbjc","msl000118","freq","","","img/orange_2bandit_b2.png","70","","70","test","1","","","circle","square","114","110","24","5","0.9363636363636364","","","","","","","","","",""
"null","","1706785","SARL_v6yyllsbjc","msl000118","freq_resp","","","img/orange_2bandit_b.png","70","img/orange_2bandit_b.png","70","test","","","","","","","","","5","","","","","","","","","","",""
"null","","1706942","SARL_v6yyllsbjc","msl000118","fixation","","","img/fixation.png","null","","","test","","","","","","","","","","","","","","","","","","","",""
"380","","1707328","SARL_v6yyllsbjc","msl000118","freq","","","img/orange_2bandit_b2.png","70","","70","test","1","","","circle","square","115","111","25","5","0.9369369369369369","","","","","","","","","",""
"null","","1707752","SARL_v6yyllsbjc","msl000118","freq_resp","","","img/orange_2bandit_b.png","70","img/orange_2bandit_b.png","70","test","","","","","","","","","5","","","","","","","","","","",""
"null","","1707909","SARL_v6yyllsbjc","msl000118","fixation","","","img/fixation.png","null","","","test","","","","","","","","","","","","","","","","","","","",""
"646","","1708561","SARL_v6yyllsbjc","msl000118","rl","","","img/black_2bandit_b2.png","74","","0","test","","","1","circle","square","116","","0","5","","74","0.8","0.2","0.30757974683043987","0.8","0.2","0.8","circle","5","0"
"null","","1709318","SARL_v6yyllsbjc","msl000118","feedback","","","img/yay_L_b.png","null","","na","test","","","","","","","","","5","","74","0.8","0.2","","","","0.8","","5",""
"590","","1709913","SARL_v6yyllsbjc","msl000118","freq","","","img/orange_2bandit_b2.png","70","","70","test","1","","","circle","square","117","112","1","6","0.9375","","","","","","","","","",""
"null","","1710129","SARL_v6yyllsbjc","msl000118","freq_resp","","","img/orange_2bandit_b.png","70","img/orange_2bandit_b.png","70","test","","","","","","","","","6","","","","","","","","","","",""
"null","","1710285","SARL_v6yyllsbjc","msl000118","fixation","","","img/fixation.png","null","","","test","","","","","","","","","","","","","","","","","","","",""
"352","","1710641","SARL_v6yyllsbjc","msl000118","freq","","","img/orange_2bandit_b2.png","70","","70","test","1","","","circle","square","118","113","2","6","0.9380530973451328","","","","","","","","","",""
"null","","1711096","SARL_v6yyllsbjc","msl000118","freq_resp","","","img/orange_2bandit_b.png","70","img/orange_2bandit_b.png","70","test","","","","","","","","","6","","","","","","","","","","",""
"null","","1711252","SARL_v6yyllsbjc","msl000118","fixation","","","img/fixation.png","null","","","test","","","","","","","","","","","","","","","","","","","",""
"330","","1711588","SARL_v6yyllsbjc","msl000118","freq","","","img/orange_2bandit_b2.png","70","","70","test","1","","","circle","square","119","114","3","6","0.9385964912280702","","","","","","","","","",""
"null","","1712063","SARL_v6yyllsbjc","msl000118","freq_resp","","","img/orange_2bandit_b.png","70","img/orange_2bandit_b.png","70","test","","","","","","","","","6","","","","","","","","","","",""
"null","","1712220","SARL_v6yyllsbjc","msl000118","fixation","","","img/fixation.png","null","","","test","","","","","","","","","","","","","","","","","","","",""
"440","","1712666","SARL_v6yyllsbjc","msl000118","freq","","","img/orange_2bandit_b2.png","70","","70","test","1","","","circle","square","120","115","4","6","0.9391304347826087","","","","","","","","","",""
"null","","1713032","SARL_v6yyllsbjc","msl000118","freq_resp","","","img/orange_2bandit_b.png","70","img/orange_2bandit_b.png","70","test","","","","","","","","","6","","","","","","","","","","",""
"null","","1713188","SARL_v6yyllsbjc","msl000118","fixation","","","img/fixation.png","null","","","test","","","","","","","","","","","","","","","","","","","",""
"306","","1713499","SARL_v6yyllsbjc","msl000118","freq","","","img/orange_2bandit_b2.png","70","","70","test","1","","","circle","square","121","116","5","6","0.9396551724137931","","","","","","","","","",""
"null","","1713998","SARL_v6yyllsbjc","msl000118","freq_resp","","","img/orange_2bandit_b.png","70","img/orange_2bandit_b.png","70","test","","","","","","","","","6","","","","","","","","","","",""
"null","","1714154","SARL_v6yyllsbjc","msl000118","fixation","","","img/fixation.png","null","","","test","","","","","","","","","","","","","","","","","","","",""
"326","","1714486","SARL_v6yyllsbjc","msl000118","freq","","","img/orange_2bandit_b2.png","70","","70","test","1","","","circle","square","122","117","6","6","0.9401709401709402","","","","","","","","","",""
"null","","1714965","SARL_v6yyllsbjc","msl000118","freq_resp","","","img/orange_2bandit_b.png","70","img/orange_2bandit_b.png","70","test","","","","","","","","","6","","","","","","","","","","",""
"null","","1715120","SARL_v6yyllsbjc","msl000118","fixation","","","img/fixation.png","null","","","test","","","","","","","","","","","","","","","","","","","",""
"402","","1715528","SARL_v6yyllsbjc","msl000118","freq","","","img/orange_2bandit_b2.png","70","","70","test","1","","","circle","square","123","118","7","6","0.940677966101695","","","","","","","","","",""
"null","","1715932","SARL_v6yyllsbjc","msl000118","freq_resp","","","img/orange_2bandit_b.png","70","img/orange_2bandit_b.png","70","test","","","","","","","","","6","","","","","","","","","","",""
"null","","1716087","SARL_v6yyllsbjc","msl000118","fixation","","","img/fixation.png","null","","","test","","","","","","","","","","","","","","","","","","","",""
"322","","1716414","SARL_v6yyllsbjc","msl000118","freq","","","img/orange_2bandit_b2.png","70","","70","test","1","","","circle","square","124","119","8","6","0.9411764705882353","","","","","","","","","",""
"null","","1716898","SARL_v6yyllsbjc","msl000118","freq_resp","","","img/orange_2bandit_b.png","70","img/orange_2bandit_b.png","70","test","","","","","","","","","6","","","","","","","","","","",""
"null","","1717054","SARL_v6yyllsbjc","msl000118","fixation","","","img/fixation.png","null","","","test","","","","","","","","","","","","","","","","","","","",""
"336","","1717397","SARL_v6yyllsbjc","msl000118","freq","","","img/orange_2bandit_b2.png","70","","70","test","1","","","circle","square","125","120","9","6","0.9416666666666667","","","","","","","","","",""
"null","","1717867","SARL_v6yyllsbjc","msl000118","freq_resp","","","img/orange_2bandit_b.png","70","img/orange_2bandit_b.png","70","test","","","","","","","","","6","","","","","","","","","","",""
"null","","1718023","SARL_v6yyllsbjc","msl000118","fixation","","","img/fixation.png","null","","","test","","","","","","","","","","","","","","","","","","","",""
"303","","1718330","SARL_v6yyllsbjc","msl000118","freq","","","img/orange_2bandit_b2.png","70","","70","test","1","","","circle","square","126","121","10","6","0.9421487603305785","","","","","","","","","",""
"null","","1718833","SARL_v6yyllsbjc","msl000118","freq_resp","","","img/orange_2bandit_b.png","70","img/orange_2bandit_b.png","70","test","","","","","","","","","6","","","","","","","","","","",""
"null","","1718990","SARL_v6yyllsbjc","msl000118","fixation","","","img/fixation.png","null","","","test","","","","","","","","","","","","","","","","","","","",""
"297","","1719290","SARL_v6yyllsbjc","msl000118","freq","","","img/orange_2bandit_b2.png","70","","70","test","1","","","circle","square","127","122","11","6","0.9426229508196722","","","","","","","","","",""
"null","","1719799","SARL_v6yyllsbjc","msl000118","freq_resp","","","img/orange_2bandit_b.png","70","img/orange_2bandit_b.png","70","test","","","","","","","","","6","","","","","","","","","","",""
"null","","1719955","SARL_v6yyllsbjc","msl000118","fixation","","","img/fixation.png","null","","","test","","","","","","","","","","","","","","","","","","","",""
"349","","1720309","SARL_v6yyllsbjc","msl000118","freq","","","img/orange_2bandit_b2.png","70","","70","test","1","","","circle","square","128","123","12","6","0.943089430894309","","","","","","","","","",""
"null","","1720765","SARL_v6yyllsbjc","msl000118","freq_resp","","","img/orange_2bandit_b.png","70","img/orange_2bandit_b.png","70","test","","","","","","","","","6","","","","","","","","","","",""
"null","","1720921","SARL_v6yyllsbjc","msl000118","fixation","","","img/fixation.png","null","","","test","","","","","","","","","","","","","","","","","","","",""
"359","","1721284","SARL_v6yyllsbjc","msl000118","freq","","","img/orange_2bandit_b2.png","70","","70","test","1","","","circle","square","129","124","13","6","0.9435483870967742","","","","","","","","","",""
"null","","1721732","SARL_v6yyllsbjc","msl000118","freq_resp","","","img/orange_2bandit_b.png","70","img/orange_2bandit_b.png","70","test","","","","","","","","","6","","","","","","","","","","",""
"null","","1721887","SARL_v6yyllsbjc","msl000118","fixation","","","img/fixation.png","null","","","test","","","","","","","","","","","","","","","","","","","",""
"286","","1722177","SARL_v6yyllsbjc","msl000118","freq","","","img/orange_2bandit_b2.png","70","","70","test","1","","","circle","square","130","125","14","6","0.944","","","","","","","","","",""
"null","","1722697","SARL_v6yyllsbjc","msl000118","freq_resp","","","img/orange_2bandit_b.png","70","img/orange_2bandit_b.png","70","test","","","","","","","","","6","","","","","","","","","","",""
"null","","1722852","SARL_v6yyllsbjc","msl000118","fixation","","","img/fixation.png","null","","","test","","","","","","","","","","","","","","","","","","","",""
"306","","1723164","SARL_v6yyllsbjc","msl000118","freq","","","img/orange_2bandit_b2.png","70","","70","test","1","","","circle","square","131","126","15","6","0.9444444444444444","","","","","","","","","",""
"null","","1723664","SARL_v6yyllsbjc","msl000118","freq_resp","","","img/orange_2bandit_b.png","70","img/orange_2bandit_b.png","70","test","","","","","","","","","6","","","","","","","","","","",""
"null","","1723819","SARL_v6yyllsbjc","msl000118","fixation","","","img/fixation.png","null","","","test","","","","","","","","","","","","","","","","","","","",""
"318","","1724142","SARL_v6yyllsbjc","msl000118","infreq","","","img/green_2bandit_b2.png","70","","68","test","0","","","circle","square","132","127","16","6","0.937007874015748","","","","","","","","","",""
"null","","1724629","SARL_v6yyllsbjc","msl000118","infreq_resp","","","img/green_2bandit_b.png","70","img/green_2bandit_b.png","68","test","","","","","","","","","6","","","","","","","","","","",""
"null","","1724785","SARL_v6yyllsbjc","msl000118","fixation","","","img/fixation.png","null","","","test","","","","","","","","","","","","","","","","","","","",""
"475","","1725265","SARL_v6yyllsbjc","msl000118","freq","","","img/orange_2bandit_b2.png","70","","70","test","1","","","circle","square","133","128","17","6","0.9375","","","","","","","","","",""
"null","","1725595","SARL_v6yyllsbjc","msl000118","freq_resp","","","img/orange_2bandit_b.png","70","img/orange_2bandit_b.png","70","test","","","","","","","","","6","","","","","","","","","","",""
"null","","1725751","SARL_v6yyllsbjc","msl000118","fixation","","","img/fixation.png","null","","","test","","","","","","","","","","","","","","","","","","","",""
"358","","1726114","SARL_v6yyllsbjc","msl000118","freq","","","img/orange_2bandit_b2.png","70","","70","test","1","","","circle","square","134","129","18","6","0.937984496124031","","","","","","","","","",""
"null","","1726562","SARL_v6yyllsbjc","msl000118","freq_resp","","","img/orange_2bandit_b.png","70","img/orange_2bandit_b.png","70","test","","","","","","","","","6","","","","","","","","","","",""
"null","","1726718","SARL_v6yyllsbjc","msl000118","fixation","","","img/fixation.png","null","","","test","","","","","","","","","","","","","","","","","","","",""
"310","","1727033","SARL_v6yyllsbjc","msl000118","freq","","","img/orange_2bandit_b2.png","70","","70","test","1","","","circle","square","135","130","19","6","0.9384615384615385","","","","","","","","","",""
"null","","1727528","SARL_v6yyllsbjc","msl000118","freq_resp","","","img/orange_2bandit_b.png","70","img/orange_2bandit_b.png","70","test","","","","","","","","","6","","","","","","","","","","",""
"null","","1727685","SARL_v6yyllsbjc","msl000118","fixation","","","img/fixation.png","null","","","test","","","","","","","","","","","","","","","","","","","",""
"320","","1728009","SARL_v6yyllsbjc","msl000118","freq","","","img/orange_2bandit_b2.png","70","","70","test","1","","","circle","square","136","131","20","6","0.9389312977099237","","","","","","","","","",""
"null","","1728494","SARL_v6yyllsbjc","msl000118","freq_resp","","","img/orange_2bandit_b.png","70","img/orange_2bandit_b.png","70","test","","","","","","","","","6","","","","","","","","","","",""
"null","","1728652","SARL_v6yyllsbjc","msl000118","fixation","","","img/fixation.png","null","","","test","","","","","","","","","","","","","","","","","","","",""
"329","","1728987","SARL_v6yyllsbjc","msl000118","freq","","","img/orange_2bandit_b2.png","70","","70","test","1","","","circle","square","137","132","21","6","0.9393939393939394","","","","","","","","","",""
"null","","1729462","SARL_v6yyllsbjc","msl000118","freq_resp","","","img/orange_2bandit_b.png","70","img/orange_2bandit_b.png","70","test","","","","","","","","","6","","","","","","","","","","",""
"null","","1729618","SARL_v6yyllsbjc","msl000118","fixation","","","img/fixation.png","null","","","test","","","","","","","","","","","","","","","","","","","",""
"436","","1730060","SARL_v6yyllsbjc","msl000118","infreq","","","img/green_2bandit_b2.png","68","","68","test","1","","","circle","square","138","133","22","6","0.9398496240601504","","","","","","","","","",""
"null","","1730430","SARL_v6yyllsbjc","msl000118","infreq_resp","","","img/green_2bandit_b.png","68","img/green_2bandit_b.png","68","test","","","","","","","","","6","","","","","","","","","","",""
"null","","1730586","SARL_v6yyllsbjc","msl000118","fixation","","","img/fixation.png","null","","","test","","","","","","","","","","","","","","","","","","","",""
"316","","1730907","SARL_v6yyllsbjc","msl000118","freq","","","img/orange_2bandit_b2.png","70","","70","test","1","","","circle","square","139","134","23","6","0.9402985074626866","","","","","","","","","",""
"null","","1731395","SARL_v6yyllsbjc","msl000118","freq_resp","","","img/orange_2bandit_b.png","70","img/orange_2bandit_b.png","70","test","","","","","","","","","6","","","","","","","","","","",""
"null","","1731551","SARL_v6yyllsbjc","msl000118","fixation","","","img/fixation.png","null","","","test","","","","","","","","","","","","","","","","","","","",""
"640","","1732196","SARL_v6yyllsbjc","msl000118","rl","","","img/black_2bandit_b2.png","74","","0","test","","","1","circle","square","140","","0","6","","74","0.8","0.2","0.6551301263029232","0.8","0.2","0.8","circle","6","0"
"null","","1732952","SARL_v6yyllsbjc","msl000118","feedback","","","img/yay_L_b.png","null","","na","test","","","","","","","","","6","","74","0.8","0.2","","","","0.8","","6",""
"578","","1733535","SARL_v6yyllsbjc","msl000118","freq","","","img/orange_2bandit_b2.png","70","","70","test","1","","","circle","square","141","135","1","7","0.9407407407407408","","","","","","","","","",""
"null","","1733763","SARL_v6yyllsbjc","msl000118","freq_resp","","","img/orange_2bandit_b.png","70","img/orange_2bandit_b.png","70","test","","","","","","","","","7","","","","","","","","","","",""
"null","","1733920","SARL_v6yyllsbjc","msl000118","fixation","","","img/fixation.png","null","","","test","","","","","","","","","","","","","","","","","","","",""
"461","","1734386","SARL_v6yyllsbjc","msl000118","infreq","","","img/green_2bandit_b2.png","68","","68","test","1","","","circle","square","142","136","2","7","0.9411764705882353","","","","","","","","","",""
"null","","1734731","SARL_v6yyllsbjc","msl000118","infreq_resp","","","img/green_2bandit_b.png","68","img/green_2bandit_b.png","68","test","","","","","","","","","7","","","","","","","","","","",""
"null","","1734887","SARL_v6yyllsbjc","msl000118","fixation","","","img/fixation.png","null","","","test","","","","","","","","","","","","","","","","","","","",""
"356","","1735248","SARL_v6yyllsbjc","msl000118","freq","","","img/orange_2bandit_b2.png","70","","70","test","1","","","circle","square","143","137","3","7","0.9416058394160584","","","","","","","","","",""
"null","","1735697","SARL_v6yyllsbjc","msl000118","freq_resp","","","img/orange_2bandit_b.png","70","img/orange_2bandit_b.png","70","test","","","","","","","","","7","","","","","","","","","","",""
"null","","1735853","SARL_v6yyllsbjc","msl000118","fixation","","","img/fixation.png","null","","","test","","","","","","","","","","","","","","","","","","","",""
"439","","1736297","SARL_v6yyllsbjc","msl000118","freq","","","img/orange_2bandit_b2.png","70","","70","test","1","","","circle","square","144","138","4","7","0.9420289855072463","","","","","","","","","",""
"null","","1736664","SARL_v6yyllsbjc","msl000118","freq_resp","","","img/orange_2bandit_b.png","70","img/orange_2bandit_b.png","70","test","","","","","","","","","7","","","","","","","","","","",""
"null","","1736819","SARL_v6yyllsbjc","msl000118","fixation","","","img/fixation.png","null","","","test","","","","","","","","","","","","","","","","","","","",""
"318","","1737142","SARL_v6yyllsbjc","msl000118","freq","","","img/orange_2bandit_b2.png","70","","70","test","1","","","circle","square","145","139","5","7","0.9424460431654677","","","","","","","","","",""
"null","","1737631","SARL_v6yyllsbjc","msl000118","freq_resp","","","img/orange_2bandit_b.png","70","img/orange_2bandit_b.png","70","test","","","","","","","","","7","","","","","","","","","","",""
"null","","1737787","SARL_v6yyllsbjc","msl000118","fixation","","","img/fixation.png","null","","","test","","","","","","","","","","","","","","","","","","","",""
"333","","1738125","SARL_v6yyllsbjc","msl000118","freq","","","img/orange_2bandit_b2.png","70","","70","test","1","","","circle","square","146","140","6","7","0.9428571428571428","","","","","","","","","",""
"null","","1738598","SARL_v6yyllsbjc","msl000118","freq_resp","","","img/orange_2bandit_b.png","70","img/orange_2bandit_b.png","70","test","","","","","","","","","7","","","","","","","","","","",""
"null","","1738753","SARL_v6yyllsbjc","msl000118","fixation","","","img/fixation.png","null","","","test","","","","","","","","","","","","","","","","","","","",""
"311","","1739070","SARL_v6yyllsbjc","msl000118","freq","","","img/orange_2bandit_b2.png","70","","70","test","1","","","circle","square","147","141","7","7","0.9432624113475178","","","","","","","","","",""
"null","","1739565","SARL_v6yyllsbjc","msl000118","freq_resp","","","img/orange_2bandit_b.png","70","img/orange_2bandit_b.png","70","test","","","","","","","","","7","","","","","","","","","","",""
"null","","1739721","SARL_v6yyllsbjc","msl000118","fixation","","","img/fixation.png","null","","","test","","","","","","","","","","","","","","","","","","","",""
"305","","1740030","SARL_v6yyllsbjc","msl000118","freq","","","img/orange_2bandit_b2.png","70","","70","test","1","","","circle","square","148","142","8","7","0.9436619718309859","","","","","","","","","",""
"null","","1740530","SARL_v6yyllsbjc","msl000118","freq_resp","","","img/orange_2bandit_b.png","70","img/orange_2bandit_b.png","70","test","","","","","","","","","7","","","","","","","","","","",""
