"rt","responses","time_elapsed","subject","demoID","trialType","rlType","attType","stimulus","key_press","stim","corrresp","phase","corr","pracCounter","reward","bandOne","bandTwo","trialNum","attentionNum","attentionRunNum","blockNum","performance","bandChosen","circleVal","squareVal","coin","bandOneVal","bandTwoVal","pReward","shapeChosen","rlNum","badFlag"
"2053496","{""Q0"":""msl000058""}","2053524","SARL_v6ktf02s20","msl000058","","","","","","","","","","","","","","","","","","","","","","","","","","","",""
"1132","","2054663","SARL_v6ktf02s20","msl000058","","","","","","","","","","","","","","","","","","","","","","","","","","","",""
"","","2056436","SARL_v6ktf02s20","msl000058","fullscreen","fullscreen","fullscreen","","","","","","","","","","","","","","","","","","","","","","","","",""
"114183","","2170624","SARL_v6ktf02s20","msl000058","","","","","","","","","","","","","","","","","","","","","","","","","","","",""
"null","","2171431","SARL_v6ktf02s20","msl000058","freqPrac","","","img/orange_2bandit_a2.png","null","img/orange_2bandit_a2.png","70","prac","0","1","","","","","","","","","","","","","","","","","",""
"null","","2172438","SARL_v6ktf02s20","msl000058","feedback","","","img/tooSlow.png","null","","na","prac","","","","","","","","","","","","","","","","","","","",""
"null","","2172594","SARL_v6ktf02s20","msl000058","fixation","","","img/fixation.png","null","","","prac","","","","","","","","","","","","","","","","","","","",""
"513","","2173112","SARL_v6ktf02s20","msl000058","infreqPrac","","","img/green_2bandit_a2.png","68","img/green_2bandit_a2.png","68","prac","1","1","","","","","","","","","","","","","","","","","",""
"513","","2173406","SARL_v6ktf02s20","msl000058","infreqPrac_resp","","","img/green_2bandit_a.png","68","img/green_2bandit_a.png","68","prac","","","","","","","","","","","","","","","","","","","",""
"null","","2173561","SARL_v6ktf02s20","msl000058","fixation","","","img/fixation.png","null","","","prac","","","","","","","","","","","","","","","","","","","",""
"384","","2173949","SARL_v6ktf02s20","msl000058","freqPrac","","","img/orange_2bandit_a2.png","68","img/orange_2bandit_a2.png","70","prac","0","2","","","","","","","","","","","","","","","","","",""
"384","","2174372","SARL_v6ktf02s20","msl000058","freqPrac_resp","","","img/orange_2bandit_a.png","68","img/orange_2bandit_a.png","70","prac","","","","","","","","","","","","","","","","","","","",""
"null","","2175378","SARL_v6ktf02s20","msl000058","feedback","","","img/wrongKey.png","null","","na","prac","","","","","","","","","","","","","","","","","","","",""
"null","","2175535","SARL_v6ktf02s20","msl000058","fixation","","","img/fixation.png","null","","","prac","","","","","","","","","","","","","","","","","","","",""
"428","","2175968","SARL_v6ktf02s20","msl000058","infreqPrac","","","img/green_2bandit_a2.png","70","img/green_2bandit_a2.png","68","prac","0","3","","","","","","","","","","","","","","","","","",""
"428","","2176347","SARL_v6ktf02s20","msl000058","infreqPrac_resp","","","img/green_2bandit_a.png","70","img/green_2bandit_a.png","68","prac","","","","","","","","","","","","","","","","","","","",""
"null","","2177354","SARL_v6ktf02s20","msl000058","feedback","","","img/wrongKey.png","null","","na","prac","","","","","","","","","","","","","","","","","","","",""
"null","","2177510","SARL_v6ktf02s20","msl000058","fixation","","","img/fixation.png","null","","","prac","","","","","","","","","","","","","","","","","","","",""
"574","","2178088","SARL_v6ktf02s20","msl000058","infreqPrac","","","img/green_2bandit_a2.png","68","img/green_2bandit_a2.png","68","prac","1","3","","","","","","","","","","","","","","","","","",""
"574","","2178320","SARL_v6ktf02s20","msl000058","infreqPrac_resp","","","img/green_2bandit_a.png","68","img/green_2bandit_a.png","68","prac","","","","","","","","","","","","","","","","","","","",""
"null","","2178476","SARL_v6ktf02s20","msl000058","fixation","","","img/fixation.png","null","","","prac","","","","","","","","","","","","","","","","","","","",""
"406","","2178887","SARL_v6ktf02s20","msl000058","infreqPrac","","","img/green_2bandit_a2.png","68","img/green_2bandit_a2.png","68","prac","1","3","","","","","","","","","","","","","","","","","",""
"406","","2179287","SARL_v6ktf02s20","msl000058","infreqPrac_resp","","","img/green_2bandit_a.png","68","img/green_2bandit_a.png","68","prac","","","","","","","","","","","","","","","","","","","",""
"null","","2179443","SARL_v6ktf02s20","msl000058","fixation","","","img/fixation.png","null","","","prac","","","","","","","","","","","","","","","","","","","",""
"385","","2179833","SARL_v6ktf02s20","msl000058","freqPrac","","","img/orange_2bandit_a2.png","70","img/orange_2bandit_a2.png","70","prac","1","3","","","","","","","","","","","","","","","","","",""
"385","","2180254","SARL_v6ktf02s20","msl000058","freqPrac_resp","","","img/orange_2bandit_a.png","70","img/orange_2bandit_a.png","70","prac","","","","","","","","","","","","","","","","","","","",""
"null","","2180408","SARL_v6ktf02s20","msl000058","fixation","","","img/fixation.png","null","","","prac","","","","","","","","","","","","","","","","","","","",""
"341","","2180755","SARL_v6ktf02s20","msl000058","infreqPrac","","","img/green_2bandit_a2.png","68","img/green_2bandit_a2.png","68","prac","1","3","","","","","","","","","","","","","","","","","",""
"341","","2181220","SARL_v6ktf02s20","msl000058","infreqPrac_resp","","","img/green_2bandit_a.png","68","img/green_2bandit_a.png","68","prac","","","","","","","","","","","","","","","","","","","",""
"null","","2181376","SARL_v6ktf02s20","msl000058","fixation","","","img/fixation.png","null","","","prac","","","","","","","","","","","","","","","","","","","",""
"371","","2181752","SARL_v6ktf02s20","msl000058","freqPrac","","","img/orange_2bandit_a2.png","70","img/orange_2bandit_a2.png","70","prac","1","3","","","","","","","","","","","","","","","","","",""
"371","","2182187","SARL_v6ktf02s20","msl000058","freqPrac_resp","","","img/orange_2bandit_a.png","70","img/orange_2bandit_a.png","70","prac","","","","","","","","","","","","","","","","","","","",""
"null","","2182341","SARL_v6ktf02s20","msl000058","fixation","","","img/fixation.png","null","","","prac","","","","","","","","","","","","","","","","","","","",""
"435","","2182781","SARL_v6ktf02s20","msl000058","freqPrac","","","img/orange_2bandit_a2.png","70","img/orange_2bandit_a2.png","70","prac","1","3","","","","","","","","","","","","","","","","","",""
"435","","2183151","SARL_v6ktf02s20","msl000058","freqPrac_resp","","","img/orange_2bandit_a.png","70","img/orange_2bandit_a.png","70","prac","","","","","","","","","","","","","","","","","","","",""
"null","","2183307","SARL_v6ktf02s20","msl000058","fixation","","","img/fixation.png","null","","","prac","","","","","","","","","","","","","","","","","","","",""
"86208","","2269518","SARL_v6ktf02s20","msl000058","","","","","","","","prac","","","","","","","","","","","","","","","","","","","",""
"1072","","2270596","SARL_v6ktf02s20","msl000058","rlPractice","","","img/black_2bandit_a2.png","75","img/black_2bandit_a2.png","","prac","","","75","","","","","","","","","","","","","","","","",""
"null","","2271352","SARL_v6ktf02s20","msl000058","feedback","","","img/yay_R_a.png","null","","na","prac","","","","","","","","","","","","","","","","","","","",""
"null","","2271506","SARL_v6ktf02s20","msl000058","fixation","","","img/fixation.png","null","","","prac","","","","","","","","","","","","","","","","","","","",""
"431","","2271942","SARL_v6ktf02s20","msl000058","rlPractice","","","img/black_2bandit_a2.png","74","img/black_2bandit_a2.png","","prac","","","75","","","","","","","","","","","","","","","","",""
"null","","2272697","SARL_v6ktf02s20","msl000058","feedback","","","img/boo_L_a.png","null","","na","prac","","","","","","","","","","","","","","","","","","","",""
"null","","2272852","SARL_v6ktf02s20","msl000058","fixation","","","img/fixation.png","null","","","prac","","","","","","","","","","","","","","","","","","","",""
"429","","2273286","SARL_v6ktf02s20","msl000058","rlPractice","","","img/black_2bandit_a2.png","75","img/black_2bandit_a2.png","","prac","","","75","","","","","","","","","","","","","","","","",""
"null","","2274041","SARL_v6ktf02s20","msl000058","feedback","","","img/yay_R_a.png","null","","na","prac","","","","","","","","","","","","","","","","","","","",""
"null","","2274197","SARL_v6ktf02s20","msl000058","fixation","","","img/fixation.png","null","","","prac","","","","","","","","","","","","","","","","","","","",""
"1040","","2275243","SARL_v6ktf02s20","msl000058","rlPractice","","","img/black_2bandit_a2.png","74","img/black_2bandit_a2.png","","prac","","","75","","","","","","","","","","","","","","","","",""
"null","","2275998","SARL_v6ktf02s20","msl000058","feedback","","","img/boo_L_a.png","null","","na","prac","","","","","","","","","","","","","","","","","","","",""
"null","","2276154","SARL_v6ktf02s20","msl000058","fixation","","","img/fixation.png","null","","","prac","","","","","","","","","","","","","","","","","","","",""
"1131","","2277289","SARL_v6ktf02s20","msl000058","rlPractice","","","img/black_2bandit_a2.png","75","img/black_2bandit_a2.png","","prac","","","75","","","","","","","","","","","","","","","","",""
"null","","2278044","SARL_v6ktf02s20","msl000058","feedback","","","img/yay_R_a.png","null","","na","prac","","","","","","","","","","","","","","","","","","","",""
"null","","2278200","SARL_v6ktf02s20","msl000058","fixation","","","img/fixation.png","null","","","prac","","","","","","","","","","","","","","","","","","","",""
"387","","2278591","SARL_v6ktf02s20","msl000058","rlPractice","","","img/black_2bandit_a2.png","75","img/black_2bandit_a2.png","","prac","","","75","","","","","","","","","","","","","","","","",""
"null","","2279346","SARL_v6ktf02s20","msl000058","feedback","","","img/yay_R_a.png","null","","na","prac","","","","","","","","","","","","","","","","","","","",""
"null","","2279502","SARL_v6ktf02s20","msl000058","fixation","","","img/fixation.png","null","","","prac","","","","","","","","","","","","","","","","","","","",""
"297","","2279804","SARL_v6ktf02s20","msl000058","rlPractice","","","img/black_2bandit_a2.png","75","img/black_2bandit_a2.png","","prac","","","75","","","","","","","","","","","","","","","","",""
"null","","2280559","SARL_v6ktf02s20","msl000058","feedback","","","img/yay_R_a.png","null","","na","prac","","","","","","","","","","","","","","","","","","","",""
"null","","2280715","SARL_v6ktf02s20","msl000058","fixation","","","img/fixation.png","null","","","prac","","","","","","","","","","","","","","","","","","","",""
"52017","","2332737","SARL_v6ktf02s20","msl000058","","","","","","","","prac","","","","","","","","","","","","","","","","","","","",""
"null","","2333543","SARL_v6ktf02s20","msl000058","mixAttFreqPrac","","","img/orange_2bandit_a2.png","null","img/orange_2bandit_a2.png","70","prac","","","","","","","","","","","","","","","","","","","",""
"null","","2333698","SARL_v6ktf02s20","msl000058","fixation","","","img/fixation.png","null","","","prac","","","","","","","","","","","","","","","","","","","",""
"25","","2333728","SARL_v6ktf02s20","msl000058","mixAttInfreqPrac","","","img/green_2bandit_a2.png","70","img/green_2bandit_a2.png","68","prac","","","","","","","","","","","","","","","","","","","",""
"25","","2334508","SARL_v6ktf02s20","msl000058","infreqPrac_resp","","","img/green_2bandit_a.png","70","img/orange_2bandit_a.png","68","prac","","","","","","","","","","","","","","","","","","","",""
"null","","2334662","SARL_v6ktf02s20","msl000058","fixation","","","img/fixation.png","null","","","prac","","","","","","","","","","","","","","","","","","","",""
"446","","2335114","SARL_v6ktf02s20","msl000058","mixAttInfreqPrac","","","img/green_2bandit_a2.png","68","img/green_2bandit_a2.png","68","prac","","","","","","","","","","","","","","","","","","","",""
"446","","2335474","SARL_v6ktf02s20","msl000058","infreqPrac_resp","","","img/green_2bandit_a.png","68","img/orange_2bandit_a.png","68","prac","","","","","","","","","","","","","","","","","","","",""
"null","","2335630","SARL_v6ktf02s20","msl000058","fixation","","","img/fixation.png","null","","","prac","","","","","","","","","","","","","","","","","","","",""
"376","","2336011","SARL_v6ktf02s20","msl000058","mixAttInfreqPrac","","","img/green_2bandit_a2.png","68","img/green_2bandit_a2.png","68","prac","","","","","","","","","","","","","","","","","","","",""
"376","","2336442","SARL_v6ktf02s20","msl000058","infreqPrac_resp","","","img/green_2bandit_a.png","68","img/orange_2bandit_a.png","68","prac","","","","","","","","","","","","","","","","","","","",""
"null","","2336597","SARL_v6ktf02s20","msl000058","fixation","","","img/fixation.png","null","","","prac","","","","","","","","","","","","","","","","","","","",""
"323","","2336925","SARL_v6ktf02s20","msl000058","mixAttFreqPrac","","","img/orange_2bandit_a2.png","70","img/orange_2bandit_a2.png","70","prac","","","","","","","","","","","","","","","","","","","",""
"323","","2337407","SARL_v6ktf02s20","msl000058","freqPrac_resp","","","img/orange_2bandit_a.png","70","img/orange_2bandit_a.png","70","prac","","","","","","","","","","","","","","","","","","","",""
"null","","2337564","SARL_v6ktf02s20","msl000058","fixation","","","img/fixation.png","null","","","prac","","","","","","","","","","","","","","","","","","","",""
"681","","2338249","SARL_v6ktf02s20","msl000058","mixRLPractice","","","img/black_2bandit_a2.png","75","img/black_2bandit_a2.png","","prac","","","","","","","","","","","","","","","","","","","",""
"null","","2339007","SARL_v6ktf02s20","msl000058","feedback","","","img/yay_R_a.png","null","","na","prac","","","","","","","","","","","","","","","","","","","",""
"669","","2339681","SARL_v6ktf02s20","msl000058","mixAttFreqPrac","","","img/orange_2bandit_a2.png","70","img/orange_2bandit_a2.png","70","prac","","","","","","","","","","","","","","","","","","","",""
"669","","2339818","SARL_v6ktf02s20","msl000058","freqPrac_resp","","","img/orange_2bandit_a.png","70","img/orange_2bandit_a.png","70","prac","","","","","","","","","","","","","","","","","","","",""
"null","","2339975","SARL_v6ktf02s20","msl000058","fixation","","","img/fixation.png","null","","","prac","","","","","","","","","","","","","","","","","","","",""
"638","","2340618","SARL_v6ktf02s20","msl000058","mixAttInfreqPrac","","","img/green_2bandit_a2.png","68","img/green_2bandit_a2.png","68","prac","","","","","","","","","","","","","","","","","","","",""
"638","","2340786","SARL_v6ktf02s20","msl000058","infreqPrac_resp","","","img/green_2bandit_a.png","68","img/orange_2bandit_a.png","68","prac","","","","","","","","","","","","","","","","","","","",""
"null","","2340942","SARL_v6ktf02s20","msl000058","fixation","","","img/fixation.png","null","","","prac","","","","","","","","","","","","","","","","","","","",""
"440","","2341387","SARL_v6ktf02s20","msl000058","mixAttFreqPrac","","","img/orange_2bandit_a2.png","70","img/orange_2bandit_a2.png","70","prac","","","","","","","","","","","","","","","","","","","",""
"440","","2341754","SARL_v6ktf02s20","msl000058","freqPrac_resp","","","img/orange_2bandit_a.png","70","img/orange_2bandit_a.png","70","prac","","","","","","","","","","","","","","","","","","","",""
"null","","2341911","SARL_v6ktf02s20","msl000058","fixation","","","img/fixation.png","null","","","prac","","","","","","","","","","","","","","","","","","","",""
"463","","2342380","SARL_v6ktf02s20","msl000058","mixAttFreqPrac","","","img/orange_2bandit_a2.png","70","img/orange_2bandit_a2.png","70","prac","","","","","","","","","","","","","","","","","","","",""
"463","","2342722","SARL_v6ktf02s20","msl000058","freqPrac_resp","","","img/orange_2bandit_a.png","70","img/orange_2bandit_a.png","70","prac","","","","","","","","","","","","","","","","","","","",""
"null","","2342878","SARL_v6ktf02s20","msl000058","fixation","","","img/fixation.png","null","","","prac","","","","","","","","","","","","","","","","","","","",""
"319","","2343203","SARL_v6ktf02s20","msl000058","mixAttInfreqPrac","","","img/green_2bandit_a2.png","68","img/green_2bandit_a2.png","68","prac","","","","","","","","","","","","","","","","","","","",""
"319","","2343688","SARL_v6ktf02s20","msl000058","infreqPrac_resp","","","img/green_2bandit_a.png","68","img/orange_2bandit_a.png","68","prac","","","","","","","","","","","","","","","","","","","",""
"null","","2343844","SARL_v6ktf02s20","msl000058","fixation","","","img/fixation.png","null","","","prac","","","","","","","","","","","","","","","","","","","",""
"448","","2344296","SARL_v6ktf02s20","msl000058","mixRLPractice","","","img/black_2bandit_a2.png","75","img/black_2bandit_a2.png","","prac","","","","","","","","","","","","","","","","","","","",""
"null","","2345052","SARL_v6ktf02s20","msl000058","feedback","","","img/yay_R_a.png","null","","na","prac","","","","","","","","","","","","","","","","","","","",""
"66214","","2411270","SARL_v6ktf02s20","msl000058","","","","","","","","prac","","","","","","","","","","","","","","","","","","","",""
"566","","2411841","SARL_v6ktf02s20","msl000058","freq","","","img/orange_2bandit_a2.png","70","","70","test","1","","","square","circle","1","1","1","1","1","","","","","","","","","",""
"null","","2412080","SARL_v6ktf02s20","msl000058","freq_resp","","","img/orange_2bandit_a.png","70","img/orange_2bandit_a.png","70","test","","","","","","","","","1","","","","","","","","","","",""
"null","","2412236","SARL_v6ktf02s20","msl000058","fixation","","","img/fixation.png","null","","","test","","","","","","","","","","","","","","","","","","","",""
"73","","2412315","SARL_v6ktf02s20","msl000058","freq","","","img/orange_2bandit_a2.png","70","","70","test","1","","","square","circle","2","2","2","1","1","","","","","","","","","",""
"null","","2413049","SARL_v6ktf02s20","msl000058","freq_resp","","","img/orange_2bandit_a.png","70","img/orange_2bandit_a.png","70","test","","","","","","","","","1","","","","","","","","","","",""
"null","","2413203","SARL_v6ktf02s20","msl000058","fixation","","","img/fixation.png","null","","","test","","","","","","","","","","","","","","","","","","","",""
"471","","2413679","SARL_v6ktf02s20","msl000058","freq","","","img/orange_2bandit_a2.png","70","","70","test","1","","","square","circle","3","3","3","1","1","","","","","","","","","",""
"null","","2414013","SARL_v6ktf02s20","msl000058","freq_resp","","","img/orange_2bandit_a.png","70","img/orange_2bandit_a.png","70","test","","","","","","","","","1","","","","","","","","","","",""
"null","","2414170","SARL_v6ktf02s20","msl000058","fixation","","","img/fixation.png","null","","","test","","","","","","","","","","","","","","","","","","","",""
"463","","2414638","SARL_v6ktf02s20","msl000058","infreq","","","img/green_2bandit_a2.png","68","","68","test","1","","","square","circle","4","4","4","1","1","","","","","","","","","",""
"null","","2414980","SARL_v6ktf02s20","msl000058","infreq_resp","","","img/green_2bandit_a.png","68","img/green_2bandit_a.png","68","test","","","","","","","","","1","","","","","","","","","","",""
"null","","2415136","SARL_v6ktf02s20","msl000058","fixation","","","img/fixation.png","null","","","test","","","","","","","","","","","","","","","","","","","",""
"419","","2415559","SARL_v6ktf02s20","msl000058","freq","","","img/orange_2bandit_a2.png","70","","70","test","1","","","square","circle","5","5","5","1","1","","","","","","","","","",""
"null","","2415945","SARL_v6ktf02s20","msl000058","freq_resp","","","img/orange_2bandit_a.png","70","img/orange_2bandit_a.png","70","test","","","","","","","","","1","","","","","","","","","","",""
"null","","2416102","SARL_v6ktf02s20","msl000058","fixation","","","img/fixation.png","null","","","test","","","","","","","","","","","","","","","","","","","",""
"388","","2416495","SARL_v6ktf02s20","msl000058","freq","","","img/orange_2bandit_a2.png","70","","70","test","1","","","square","circle","6","6","6","1","1","","","","","","","","","",""
"null","","2416913","SARL_v6ktf02s20","msl000058","freq_resp","","","img/orange_2bandit_a.png","70","img/orange_2bandit_a.png","70","test","","","","","","","","","1","","","","","","","","","","",""
"null","","2417068","SARL_v6ktf02s20","msl000058","fixation","","","img/fixation.png","null","","","test","","","","","","","","","","","","","","","","","","","",""
"378","","2417451","SARL_v6ktf02s20","msl000058","freq","","","img/orange_2bandit_a2.png","70","","70","test","1","","","square","circle","7","7","7","1","1","","","","","","","","","",""
"null","","2417879","SARL_v6ktf02s20","msl000058","freq_resp","","","img/orange_2bandit_a.png","70","img/orange_2bandit_a.png","70","test","","","","","","","","","1","","","","","","","","","","",""
"null","","2418035","SARL_v6ktf02s20","msl000058","fixation","","","img/fixation.png","null","","","test","","","","","","","","","","","","","","","","","","","",""
"301","","2418342","SARL_v6ktf02s20","msl000058","freq","","","img/orange_2bandit_a2.png","70","","70","test","1","","","square","circle","8","8","8","1","1","","","","","","","","","",""
"null","","2418846","SARL_v6ktf02s20","msl000058","freq_resp","","","img/orange_2bandit_a.png","70","img/orange_2bandit_a.png","70","test","","","","","","","","","1","","","","","","","","","","",""
"null","","2419002","SARL_v6ktf02s20","msl000058","fixation","","","img/fixation.png","null","","","test","","","","","","","","","","","","","","","","","","","",""
"291","","2419297","SARL_v6ktf02s20","msl000058","freq","","","img/orange_2bandit_a2.png","70","","70","test","1","","","square","circle","9","9","9","1","1","","","","","","","","","",""
"null","","2419813","SARL_v6ktf02s20","msl000058","freq_resp","","","img/orange_2bandit_a.png","70","img/orange_2bandit_a.png","70","test","","","","","","","","","1","","","","","","","","","","",""
"null","","2419968","SARL_v6ktf02s20","msl000058","fixation","","","img/fixation.png","null","","","test","","","","","","","","","","","","","","","","","","","",""
"278","","2420251","SARL_v6ktf02s20","msl000058","freq","","","img/orange_2bandit_a2.png","70","","70","test","1","","","square","circle","10","10","10","1","1","","","","","","","","","",""
"null","","2420779","SARL_v6ktf02s20","msl000058","freq_resp","","","img/orange_2bandit_a.png","70","img/orange_2bandit_a.png","70","test","","","","","","","","","1","","","","","","","","","","",""
"null","","2420934","SARL_v6ktf02s20","msl000058","fixation","","","img/fixation.png","null","","","test","","","","","","","","","","","","","","","","","","","",""
"177","","2421115","SARL_v6ktf02s20","msl000058","freq","","","img/orange_2bandit_a2.png","70","","70","test","1","","","square","circle","11","11","11","1","1","","","","","","","","","",""
"null","","2421743","SARL_v6ktf02s20","msl000058","freq_resp","","","img/orange_2bandit_a.png","70","img/orange_2bandit_a.png","70","test","","","","","","","","","1","","","","","","","","","","",""
"null","","2421898","SARL_v6ktf02s20","msl000058","fixation","","","img/fixation.png","null","","","test","","","","","","","","","","","","","","","","","","","",""
"153","","2422057","SARL_v6ktf02s20","msl000058","freq","","","img/orange_2bandit_a2.png","70","","70","test","1","","","square","circle","12","12","12","1","1","","","","","","","","","",""
"null","","2422710","SARL_v6ktf02s20","msl000058","freq_resp","","","img/orange_2bandit_a.png","70","img/orange_2bandit_a.png","70","test","","","","","","","","","1","","","","","","","","","","",""
"null","","2422866","SARL_v6ktf02s20","msl000058","fixation","","","img/fixation.png","null","","","test","","","","","","","","","","","","","","","","","","","",""
"27","","2422896","SARL_v6ktf02s20","msl000058","infreq","","","img/green_2bandit_a2.png","70","","68","test","0","","","square","circle","13","13","13","1","0.9230769230769231","","","","","","","","","",""
"null","","2423676","SARL_v6ktf02s20","msl000058","infreq_resp","","","img/green_2bandit_a.png","70","img/green_2bandit_a.png","68","test","","","","","","","","","1","","","","","","","","","","",""
"null","","2423831","SARL_v6ktf02s20","msl000058","fixation","","","img/fixation.png","null","","","test","","","","","","","","","","","","","","","","","","","",""
"416","","2424252","SARL_v6ktf02s20","msl000058","freq","","","img/orange_2bandit_a2.png","70","","70","test","1","","","square","circle","14","14","14","1","0.9285714285714286","","","","","","","","","",""
"null","","2424641","SARL_v6ktf02s20","msl000058","freq_resp","","","img/orange_2bandit_a.png","70","img/orange_2bandit_a.png","70","test","","","","","","","","","1","","","","","","","","","","",""
"null","","2424797","SARL_v6ktf02s20","msl000058","fixation","","","img/fixation.png","null","","","test","","","","","","","","","","","","","","","","","","","",""
"333","","2425134","SARL_v6ktf02s20","msl000058","freq","","","img/orange_2bandit_a2.png","70","","70","test","1","","","square","circle","15","15","15","1","0.9333333333333333","","","","","","","","","",""
"null","","2425607","SARL_v6ktf02s20","msl000058","freq_resp","","","img/orange_2bandit_a.png","70","img/orange_2bandit_a.png","70","test","","","","","","","","","1","","","","","","","","","","",""
"null","","2425763","SARL_v6ktf02s20","msl000058","fixation","","","img/fixation.png","null","","","test","","","","","","","","","","","","","","","","","","","",""
"330","","2426097","SARL_v6ktf02s20","msl000058","freq","","","img/orange_2bandit_a2.png","70","","70","test","1","","","square","circle","16","16","16","1","0.9375","","","","","","","","","",""
"null","","2426574","SARL_v6ktf02s20","msl000058","freq_resp","","","img/orange_2bandit_a.png","70","img/orange_2bandit_a.png","70","test","","","","","","","","","1","","","","","","","","","","",""
"null","","2426728","SARL_v6ktf02s20","msl000058","fixation","","","img/fixation.png","null","","","test","","","","","","","","","","","","","","","","","","","",""
"281","","2427015","SARL_v6ktf02s20","msl000058","freq","","","img/orange_2bandit_a2.png","70","","70","test","1","","","square","circle","17","17","17","1","0.9411764705882353","","","","","","","","","",""
"null","","2427540","SARL_v6ktf02s20","msl000058","freq_resp","","","img/orange_2bandit_a.png","70","img/orange_2bandit_a.png","70","test","","","","","","","","","1","","","","","","","","","","",""
"null","","2427696","SARL_v6ktf02s20","msl000058","fixation","","","img/fixation.png","null","","","test","","","","","","","","","","","","","","","","","","","",""
"285","","2427985","SARL_v6ktf02s20","msl000058","freq","","","img/orange_2bandit_a2.png","70","","70","test","1","","","square","circle","18","18","18","1","0.9444444444444444","","","","","","","","","",""
"null","","2428506","SARL_v6ktf02s20","msl000058","freq_resp","","","img/orange_2bandit_a.png","70","img/orange_2bandit_a.png","70","test","","","","","","","","","1","","","","","","","","","","",""
"null","","2428661","SARL_v6ktf02s20","msl000058","fixation","","","img/fixation.png","null","","","test","","","","","","","","","","","","","","","","","","","",""
"430","","2429097","SARL_v6ktf02s20","msl000058","infreq","","","img/green_2bandit_a2.png","68","","68","test","1","","","square","circle","19","19","19","1","0.9473684210526315","","","","","","","","","",""
"null","","2429472","SARL_v6ktf02s20","msl000058","infreq_resp","","","img/green_2bandit_a.png","68","img/green_2bandit_a.png","68","test","","","","","","","","","1","","","","","","","","","","",""
"null","","2429627","SARL_v6ktf02s20","msl000058","fixation","","","img/fixation.png","null","","","test","","","","","","","","","","","","","","","","","","","",""
"360","","2429992","SARL_v6ktf02s20","msl000058","freq","","","img/orange_2bandit_a2.png","70","","70","test","1","","","square","circle","20","20","20","1","0.95","","","","","","","","","",""
"null","","2430437","SARL_v6ktf02s20","msl000058","freq_resp","","","img/orange_2bandit_a.png","70","img/orange_2bandit_a.png","70","test","","","","","","","","","1","","","","","","","","","","",""
"null","","2430594","SARL_v6ktf02s20","msl000058","fixation","","","img/fixation.png","null","","","test","","","","","","","","","","","","","","","","","","","",""
"337","","2430936","SARL_v6ktf02s20","msl000058","freq","","","img/orange_2bandit_a2.png","70","","70","test","1","","","square","circle","21","21","21","1","0.9523809523809523","","","","","","","","","",""
"null","","2431404","SARL_v6ktf02s20","msl000058","freq_resp","","","img/orange_2bandit_a.png","70","img/orange_2bandit_a.png","70","test","","","","","","","","","1","","","","","","","","","","",""
"null","","2431560","SARL_v6ktf02s20","msl000058","fixation","","","img/fixation.png","null","","","test","","","","","","","","","","","","","","","","","","","",""
"283","","2431847","SARL_v6ktf02s20","msl000058","freq","","","img/orange_2bandit_a2.png","70","","70","test","1","","","square","circle","22","22","22","1","0.9545454545454546","","","","","","","","","",""
"null","","2432370","SARL_v6ktf02s20","msl000058","freq_resp","","","img/orange_2bandit_a.png","70","img/orange_2bandit_a.png","70","test","","","","","","","","","1","","","","","","","","","","",""
"null","","2432526","SARL_v6ktf02s20","msl000058","fixation","","","img/fixation.png","null","","","test","","","","","","","","","","","","","","","","","","","",""
"312","","2432842","SARL_v6ktf02s20","msl000058","freq","","","img/orange_2bandit_a2.png","70","","70","test","1","","","square","circle","23","23","23","1","0.9565217391304348","","","","","","","","","",""
"null","","2433336","SARL_v6ktf02s20","msl000058","freq_resp","","","img/orange_2bandit_a.png","70","img/orange_2bandit_a.png","70","test","","","","","","","","","1","","","","","","","","","","",""
"null","","2433491","SARL_v6ktf02s20","msl000058","fixation","","","img/fixation.png","null","","","test","","","","","","","","","","","","","","","","","","","",""
"284","","2433779","SARL_v6ktf02s20","msl000058","freq","","","img/orange_2bandit_a2.png","70","","70","test","1","","","square","circle","24","24","24","1","0.9583333333333334","","","","","","","","","",""
"null","","2434300","SARL_v6ktf02s20","msl000058","freq_resp","","","img/orange_2bandit_a.png","70","img/orange_2bandit_a.png","70","test","","","","","","","","","1","","","","","","","","","","",""
"null","","2434455","SARL_v6ktf02s20","msl000058","fixation","","","img/fixation.png","null","","","test","","","","","","","","","","","","","","","","","","","",""
"260","","2434720","SARL_v6ktf02s20","msl000058","freq","","","img/orange_2bandit_a2.png","70","","70","test","1","","","square","circle","25","25","25","1","0.96","","","","","","","","","",""
"null","","2435267","SARL_v6ktf02s20","msl000058","freq_resp","","","img/orange_2bandit_a.png","70","img/orange_2bandit_a.png","70","test","","","","","","","","","1","","","","","","","","","","",""
"null","","2435422","SARL_v6ktf02s20","msl000058","fixation","","","img/fixation.png","null","","","test","","","","","","","","","","","","","","","","","","","",""
"568","","2435995","SARL_v6ktf02s20","msl000058","rl","","","img/black_2bandit_a2.png","75","","0","test","","","1","square","circle","26","","0","1","","75","0.8","0.2","0.43623231832222975","0.2","0.8","0.8","circle","1","0"
"null","","2436752","SARL_v6ktf02s20","msl000058","feedback","","","img/yay_R_a.png","null","","na","test","","","","","","","","","1","","75","0.8","0.2","","","","0.8","","1",""
"558","","2437315","SARL_v6ktf02s20","msl000058","freq","","","img/orange_2bandit_a2.png","70","","70","test","1","","","square","circle","27","26","1","2","0.9615384615384616","","","","","","","","","",""
"null","","2437564","SARL_v6ktf02s20","msl000058","freq_resp","","","img/orange_2bandit_a.png","70","img/orange_2bandit_a.png","70","test","","","","","","","","","2","","","","","","","","","","",""
"null","","2437720","SARL_v6ktf02s20","msl000058","fixation","","","img/fixation.png","null","","","test","","","","","","","","","","","","","","","","","","","",""
"417","","2438143","SARL_v6ktf02s20","msl000058","freq","","","img/orange_2bandit_a2.png","70","","70","test","1","","","square","circle","28","27","2","2","0.9629629629629629","","","","","","","","","",""
"null","","2438532","SARL_v6ktf02s20","msl000058","freq_resp","","","img/orange_2bandit_a.png","70","img/orange_2bandit_a.png","70","test","","","","","","","","","2","","","","","","","","","","",""
"null","","2438689","SARL_v6ktf02s20","msl000058","fixation","","","img/fixation.png","null","","","test","","","","","","","","","","","","","","","","","","","",""
"307","","2439001","SARL_v6ktf02s20","msl000058","freq","","","img/orange_2bandit_a2.png","70","","70","test","1","","","square","circle","29","28","3","2","0.9642857142857143","","","","","","","","","",""
"null","","2439500","SARL_v6ktf02s20","msl000058","freq_resp","","","img/orange_2bandit_a.png","70","img/orange_2bandit_a.png","70","test","","","","","","","","","2","","","","","","","","","","",""
"null","","2439655","SARL_v6ktf02s20","msl000058","fixation","","","img/fixation.png","null","","","test","","","","","","","","","","","","","","","","","","","",""
"190","","2439850","SARL_v6ktf02s20","msl000058","freq","","","img/orange_2bandit_a2.png","70","","70","test","1","","","square","circle","30","29","4","2","0.9655172413793104","","","","","","","","","",""
"null","","2440466","SARL_v6ktf02s20","msl000058","freq_resp","","","img/orange_2bandit_a.png","70","img/orange_2bandit_a.png","70","test","","","","","","","","","2","","","","","","","","","","",""
"null","","2440622","SARL_v6ktf02s20","msl000058","fixation","","","img/fixation.png","null","","","test","","","","","","","","","","","","","","","","","","","",""
"343","","2440971","SARL_v6ktf02s20","msl000058","freq","","","img/orange_2bandit_a2.png","70","","70","test","1","","","square","circle","31","30","5","2","0.9666666666666667","","","","","","","","","",""
"null","","2441434","SARL_v6ktf02s20","msl000058","freq_resp","","","img/orange_2bandit_a.png","70","img/orange_2bandit_a.png","70","test","","","","","","","","","2","","","","","","","","","","",""
"null","","2441590","SARL_v6ktf02s20","msl000058","fixation","","","img/fixation.png","null","","","test","","","","","","","","","","","","","","","","","","","",""
"323","","2441918","SARL_v6ktf02s20","msl000058","freq","","","img/orange_2bandit_a2.png","70","","70","test","1","","","square","circle","32","31","6","2","0.967741935483871","","","","","","","","","",""
"null","","2442400","SARL_v6ktf02s20","msl000058","freq_resp","","","img/orange_2bandit_a.png","70","img/orange_2bandit_a.png","70","test","","","","","","","","","2","","","","","","","","","","",""
"null","","2442557","SARL_v6ktf02s20","msl000058","fixation","","","img/fixation.png","null","","","test","","","","","","","","","","","","","","","","","","","",""
"315","","2442876","SARL_v6ktf02s20","msl000058","infreq","","","img/green_2bandit_a2.png","70","","68","test","0","","","square","circle","33","32","7","2","0.9375","","","","","","","","","",""
"null","","2443367","SARL_v6ktf02s20","msl000058","infreq_resp","","","img/green_2bandit_a.png","70","img/green_2bandit_a.png","68","test","","","","","","","","","2","","","","","","","","","","",""
"null","","2443522","SARL_v6ktf02s20","msl000058","fixation","","","img/fixation.png","null","","","test","","","","","","","","","","","","","","","","","","","",""
"418","","2443945","SARL_v6ktf02s20","msl000058","freq","","","img/orange_2bandit_a2.png","70","","70","test","1","","","square","circle","34","33","8","2","0.9393939393939394","","","","","","","","","",""
"null","","2444333","SARL_v6ktf02s20","msl000058","freq_resp","","","img/orange_2bandit_a.png","70","img/orange_2bandit_a.png","70","test","","","","","","","","","2","","","","","","","","","","",""
"null","","2444488","SARL_v6ktf02s20","msl000058","fixation","","","img/fixation.png","null","","","test","","","","","","","","","","","","","","","","","","","",""
"339","","2444832","SARL_v6ktf02s20","msl000058","freq","","","img/orange_2bandit_a2.png","70","","70","test","1","","","square","circle","35","34","9","2","0.9411764705882353","","","","","","","","","",""
"null","","2445299","SARL_v6ktf02s20","msl000058","freq_resp","","","img/orange_2bandit_a.png","70","img/orange_2bandit_a.png","70","test","","","","","","","","","2","","","","","","","","","","",""
"null","","2445454","SARL_v6ktf02s20","msl000058","fixation","","","img/fixation.png","null","","","test","","","","","","","","","","","","","","","","","","","",""
"169","","2445629","SARL_v6ktf02s20","msl000058","freq","","","img/orange_2bandit_a2.png","70","","70","test","1","","","square","circle","36","35","10","2","0.9428571428571428","","","","","","","","","",""
"null","","2446266","SARL_v6ktf02s20","msl000058","freq_resp","","","img/orange_2bandit_a.png","70","img/orange_2bandit_a.png","70","test","","","","","","","","","2","","","","","","","","","","",""
"null","","2446422","SARL_v6ktf02s20","msl000058","fixation","","","img/fixation.png","null","","","test","","","","","","","","","","","","","","","","","","","",""
"183","","2446610","SARL_v6ktf02s20","msl000058","freq","","","img/orange_2bandit_a2.png","70","","70","test","1","","","square","circle","37","36","11","2","0.9444444444444444","","","","","","","","","",""
"null","","2447232","SARL_v6ktf02s20","msl000058","freq_resp","","","img/orange_2bandit_a.png","70","img/orange_2bandit_a.png","70","test","","","","","","","","","2","","","","","","","","","","",""
"null","","2447387","SARL_v6ktf02s20","msl000058","fixation","","","img/fixation.png","null","","","test","","","","","","","","","","","","","","","","","","","",""
"316","","2447708","SARL_v6ktf02s20","msl000058","freq","","","img/orange_2bandit_a2.png","70","","70","test","1","","","square","circle","38","37","12","2","0.9459459459459459","","","","","","","","","",""
"null","","2448198","SARL_v6ktf02s20","msl000058","freq_resp","","","img/orange_2bandit_a.png","70","img/orange_2bandit_a.png","70","test","","","","","","","","","2","","","","","","","","","","",""
"null","","2448354","SARL_v6ktf02s20","msl000058","fixation","","","img/fixation.png","null","","","test","","","","","","","","","","","","","","","","","","","",""
"312","","2448669","SARL_v6ktf02s20","msl000058","freq","","","img/orange_2bandit_a2.png","70","","70","test","1","","","square","circle","39","38","13","2","0.9473684210526315","","","","","","","","","",""
"null","","2449163","SARL_v6ktf02s20","msl000058","freq_resp","","","img/orange_2bandit_a.png","70","img/orange_2bandit_a.png","70","test","","","","","","","","","2","","","","","","","","","","",""
"null","","2449319","SARL_v6ktf02s20","msl000058","fixation","","","img/fixation.png","null","","","test","","","","","","","","","","","","","","","","","","","",""
"219","","2449543","SARL_v6ktf02s20","msl000058","freq","","","img/orange_2bandit_a2.png","70","","70","test","1","","","square","circle","40","39","14","2","0.9487179487179487","","","","","","","","","",""
"null","","2450130","SARL_v6ktf02s20","msl000058","freq_resp","","","img/orange_2bandit_a.png","70","img/orange_2bandit_a.png","70","test","","","","","","","","","2","","","","","","","","","","",""
"null","","2450285","SARL_v6ktf02s20","msl000058","fixation","","","img/fixation.png","null","","","test","","","","","","","","","","","","","","","","","","","",""
"233","","2450522","SARL_v6ktf02s20","msl000058","freq","","","img/orange_2bandit_a2.png","70","","70","test","1","","","square","circle","41","40","15","2","0.95","","","","","","","","","",""
"null","","2451095","SARL_v6ktf02s20","msl000058","freq_resp","","","img/orange_2bandit_a.png","70","img/orange_2bandit_a.png","70","test","","","","","","","","","2","","","","","","","","","","",""
"null","","2451251","SARL_v6ktf02s20","msl000058","fixation","","","img/fixation.png","null","","","test","","","","","","","","","","","","","","","","","","","",""
"395","","2451651","SARL_v6ktf02s20","msl000058","infreq","","","img/green_2bandit_a2.png","68","","68","test","1","","","square","circle","42","41","16","2","0.9512195121951219","","","","","","","","","",""
"null","","2452062","SARL_v6ktf02s20","msl000058","infreq_resp","","","img/green_2bandit_a.png","68","img/green_2bandit_a.png","68","test","","","","","","","","","2","","","","","","","","","","",""
"null","","2452216","SARL_v6ktf02s20","msl000058","fixation","","","img/fixation.png","null","","","test","","","","","","","","","","","","","","","","","","","",""
"353","","2452574","SARL_v6ktf02s20","msl000058","freq","","","img/orange_2bandit_a2.png","70","","70","test","1","","","square","circle","43","42","17","2","0.9523809523809523","","","","","","","","","",""
"null","","2453026","SARL_v6ktf02s20","msl000058","freq_resp","","","img/orange_2bandit_a.png","70","img/orange_2bandit_a.png","70","test","","","","","","","","","2","","","","","","","","","","",""
"null","","2453181","SARL_v6ktf02s20","msl000058","fixation","","","img/fixation.png","null","","","test","","","","","","","","","","","","","","","","","","","",""
"403","","2453588","SARL_v6ktf02s20","msl000058","freq","","","img/orange_2bandit_a2.png","70","","70","test","1","","","square","circle","44","43","18","2","0.9534883720930233","","","","","","","","","",""
"null","","2453989","SARL_v6ktf02s20","msl000058","freq_resp","","","img/orange_2bandit_a.png","70","img/orange_2bandit_a.png","70","test","","","","","","","","","2","","","","","","","","","","",""
"null","","2454144","SARL_v6ktf02s20","msl000058","fixation","","","img/fixation.png","null","","","test","","","","","","","","","","","","","","","","","","","",""
"301","","2454450","SARL_v6ktf02s20","msl000058","freq","","","img/orange_2bandit_a2.png","70","","70","test","1","","","square","circle","45","44","19","2","0.9545454545454546","","","","","","","","","",""
"null","","2454957","SARL_v6ktf02s20","msl000058","freq_resp","","","img/orange_2bandit_a.png","70","img/orange_2bandit_a.png","70","test","","","","","","","","","2","","","","","","","","","","",""
"null","","2455110","SARL_v6ktf02s20","msl000058","fixation","","","img/fixation.png","null","","","test","","","","","","","","","","","","","","","","","","","",""
"389","","2455506","SARL_v6ktf02s20","msl000058","infreq","","","img/green_2bandit_a2.png","68","","68","test","1","","","square","circle","46","45","20","2","0.9555555555555556","","","","","","","","","",""
"null","","2455922","SARL_v6ktf02s20","msl000058","infreq_resp","","","img/green_2bandit_a.png","68","img/green_2bandit_a.png","68","test","","","","","","","","","2","","","","","","","","","","",""
"null","","2456078","SARL_v6ktf02s20","msl000058","fixation","","","img/fixation.png","null","","","test","","","","","","","","","","","","","","","","","","","",""
"324","","2456406","SARL_v6ktf02s20","msl000058","freq","","","img/orange_2bandit_a2.png","70","","70","test","1","","","square","circle","47","46","21","2","0.9565217391304348","","","","","","","","","",""
"null","","2456888","SARL_v6ktf02s20","msl000058","freq_resp","","","img/orange_2bandit_a.png","70","img/orange_2bandit_a.png","70","test","","","","","","","","","2","","","","","","","","","","",""
"null","","2457044","SARL_v6ktf02s20","msl000058","fixation","","","img/fixation.png","null","","","test","","","","","","","","","","","","","","","","","","","",""
"258","","2457308","SARL_v6ktf02s20","msl000058","infreq","","","img/green_2bandit_a2.png","70","","68","test","0","","","square","circle","48","47","22","2","0.9361702127659575","","","","","","","","","",""
"null","","2457856","SARL_v6ktf02s20","msl000058","infreq_resp","","","img/green_2bandit_a.png","70","img/green_2bandit_a.png","68","test","","","","","","","","","2","","","","","","","","","","",""
"null","","2458011","SARL_v6ktf02s20","msl000058","fixation","","","img/fixation.png","null","","","test","","","","","","","","","","","","","","","","","","","",""
"328","","2458344","SARL_v6ktf02s20","msl000058","freq","","","img/orange_2bandit_a2.png","70","","70","test","1","","","square","circle","49","48","23","2","0.9375","","","","","","","","","",""
"null","","2458821","SARL_v6ktf02s20","msl000058","freq_resp","","","img/orange_2bandit_a.png","70","img/orange_2bandit_a.png","70","test","","","","","","","","","2","","","","","","","","","","",""
"null","","2458977","SARL_v6ktf02s20","msl000058","fixation","","","img/fixation.png","null","","","test","","","","","","","","","","","","","","","","","","","",""
"311","","2459292","SARL_v6ktf02s20","msl000058","freq","","","img/orange_2bandit_a2.png","70","","70","test","1","","","square","circle","50","49","24","2","0.9387755102040817","","","","","","","","","",""
"null","","2459785","SARL_v6ktf02s20","msl000058","freq_resp","","","img/orange_2bandit_a.png","70","img/orange_2bandit_a.png","70","test","","","","","","","","","2","","","","","","","","","","",""
"null","","2459941","SARL_v6ktf02s20","msl000058","fixation","","","img/fixation.png","null","","","test","","","","","","","","","","","","","","","","","","","",""
"309","","2460256","SARL_v6ktf02s20","msl000058","freq","","","img/orange_2bandit_a2.png","70","","70","test","1","","","square","circle","51","50","25","2","0.94","","","","","","","","","",""
"null","","2460753","SARL_v6ktf02s20","msl000058","freq_resp","","","img/orange_2bandit_a.png","70","img/orange_2bandit_a.png","70","test","","","","","","","","","2","","","","","","","","","","",""
"null","","2460908","SARL_v6ktf02s20","msl000058","fixation","","","img/fixation.png","null","","","test","","","","","","","","","","","","","","","","","","","",""
"417","","2461329","SARL_v6ktf02s20","msl000058","rl","","","img/black_2bandit_a2.png","75","","0","test","","","0","square","circle","52","","0","2","","75","0.8","0.2","0.8208015213920705","0.2","0.8","0.8","circle","2","0"
"null","","2462086","SARL_v6ktf02s20","msl000058","feedback","","","img/boo_R_a.png","null","","na","test","","","","","","","","","2","","75","0.8","0.2","","","","0.8","","2",""
"537","","2462629","SARL_v6ktf02s20","msl000058","freq","","","img/orange_2bandit_a2.png","70","","70","test","1","","","square","circle","53","51","1","3","0.9411764705882353","","","","","","","","","",""
"null","","2462897","SARL_v6ktf02s20","msl000058","freq_resp","","","img/orange_2bandit_a.png","70","img/orange_2bandit_a.png","70","test","","","","","","","","","3","","","","","","","","","","",""
"null","","2463052","SARL_v6ktf02s20","msl000058","fixation","","","img/fixation.png","null","","","test","","","","","","","","","","","","","","","","","","","",""
"314","","2463371","SARL_v6ktf02s20","msl000058","infreq","","","img/green_2bandit_a2.png","68","","68","test","1","","","square","circle","54","52","2","3","0.9423076923076923","","","","","","","","","",""
"null","","2463862","SARL_v6ktf02s20","msl000058","infreq_resp","","","img/green_2bandit_a.png","68","img/green_2bandit_a.png","68","test","","","","","","","","","3","","","","","","","","","","",""
"null","","2464017","SARL_v6ktf02s20","msl000058","fixation","","","img/fixation.png","null","","","test","","","","","","","","","","","","","","","","","","","",""
"289","","2464310","SARL_v6ktf02s20","msl000058","freq","","","img/orange_2bandit_a2.png","70","","70","test","1","","","square","circle","55","53","3","3","0.9433962264150944","","","","","","","","","",""
"null","","2464827","SARL_v6ktf02s20","msl000058","freq_resp","","","img/orange_2bandit_a.png","70","img/orange_2bandit_a.png","70","test","","","","","","","","","3","","","","","","","","","","",""
"null","","2464982","SARL_v6ktf02s20","msl000058","fixation","","","img/fixation.png","null","","","test","","","","","","","","","","","","","","","","","","","",""
"290","","2465277","SARL_v6ktf02s20","msl000058","freq","","","img/orange_2bandit_a2.png","70","","70","test","1","","","square","circle","56","54","4","3","0.9444444444444444","","","","","","","","","",""
"null","","2465792","SARL_v6ktf02s20","msl000058","freq_resp","","","img/orange_2bandit_a.png","70","img/orange_2bandit_a.png","70","test","","","","","","","","","3","","","","","","","","","","",""
"null","","2465948","SARL_v6ktf02s20","msl000058","fixation","","","img/fixation.png","null","","","test","","","","","","","","","","","","","","","","","","","",""
"294","","2466246","SARL_v6ktf02s20","msl000058","freq","","","img/orange_2bandit_a2.png","70","","70","test","1","","","square","circle","57","55","5","3","0.9454545454545454","","","","","","","","","",""
"null","","2466757","SARL_v6ktf02s20","msl000058","freq_resp","","","img/orange_2bandit_a.png","70","img/orange_2bandit_a.png","70","test","","","","","","","","","3","","","","","","","","","","",""
"null","","2466913","SARL_v6ktf02s20","msl000058","fixation","","","img/fixation.png","null","","","test","","","","","","","","","","","","","","","","","","","",""
"142","","2467060","SARL_v6ktf02s20","msl000058","freq","","","img/orange_2bandit_a2.png","70","","70","test","1","","","square","circle","58","56","6","3","0.9464285714285714","","","","","","","","","",""
"null","","2467724","SARL_v6ktf02s20","msl000058","freq_resp","","","img/orange_2bandit_a.png","70","img/orange_2bandit_a.png","70","test","","","","","","","","","3","","","","","","","","","","",""
"null","","2467879","SARL_v6ktf02s20","msl000058","fixation","","","img/fixation.png","null","","","test","","","","","","","","","","","","","","","","","","","",""
"78","","2467963","SARL_v6ktf02s20","msl000058","freq","","","img/orange_2bandit_a2.png","70","","70","test","1","","","square","circle","59","57","7","3","0.9473684210526315","","","","","","","","","",""
"null","","2468690","SARL_v6ktf02s20","msl000058","freq_resp","","","img/orange_2bandit_a.png","70","img/orange_2bandit_a.png","70","test","","","","","","","","","3","","","","","","","","","","",""
"null","","2468846","SARL_v6ktf02s20","msl000058","fixation","","","img/fixation.png","null","","","test","","","","","","","","","","","","","","","","","","","",""
"325","","2469177","SARL_v6ktf02s20","msl000058","freq","","","img/orange_2bandit_a2.png","70","","70","test","1","","","square","circle","60","58","8","3","0.9482758620689655","","","","","","","","","",""
"null","","2469658","SARL_v6ktf02s20","msl000058","freq_resp","","","img/orange_2bandit_a.png","70","img/orange_2bandit_a.png","70","test","","","","","","","","","3","","","","","","","","","","",""
"null","","2469814","SARL_v6ktf02s20","msl000058","fixation","","","img/fixation.png","null","","","test","","","","","","","","","","","","","","","","","","","",""
"241","","2470060","SARL_v6ktf02s20","msl000058","freq","","","img/orange_2bandit_a2.png","70","","70","test","1","","","square","circle","61","59","9","3","0.9491525423728814","","","","","","","","","",""
"null","","2470624","SARL_v6ktf02s20","msl000058","freq_resp","","","img/orange_2bandit_a.png","70","img/orange_2bandit_a.png","70","test","","","","","","","","","3","","","","","","","","","","",""
"null","","2470780","SARL_v6ktf02s20","msl000058","fixation","","","img/fixation.png","null","","","test","","","","","","","","","","","","","","","","","","","",""
"173","","2470958","SARL_v6ktf02s20","msl000058","freq","","","img/orange_2bandit_a2.png","70","","70","test","1","","","square","circle","62","60","10","3","0.95","","","","","","","","","",""
"null","","2471592","SARL_v6ktf02s20","msl000058","freq_resp","","","img/orange_2bandit_a.png","70","img/orange_2bandit_a.png","70","test","","","","","","","","","3","","","","","","","","","","",""
"null","","2471747","SARL_v6ktf02s20","msl000058","fixation","","","img/fixation.png","null","","","test","","","","","","","","","","","","","","","","","","","",""
"252","","2472003","SARL_v6ktf02s20","msl000058","freq","","","img/orange_2bandit_a2.png","70","","70","test","1","","","square","circle","63","61","11","3","0.9508196721311475","","","","","","","","","",""
"null","","2472557","SARL_v6ktf02s20","msl000058","freq_resp","","","img/orange_2bandit_a.png","70","img/orange_2bandit_a.png","70","test","","","","","","","","","3","","","","","","","","","","",""
"null","","2472713","SARL_v6ktf02s20","msl000058","fixation","","","img/fixation.png","null","","","test","","","","","","","","","","","","","","","","","","","",""
"249","","2472966","SARL_v6ktf02s20","msl000058","freq","","","img/orange_2bandit_a2.png","70","","70","test","1","","","square","circle","64","62","12","3","0.9516129032258065","","","","","","","","","",""
"null","","2473523","SARL_v6ktf02s20","msl000058","freq_resp","","","img/orange_2bandit_a.png","70","img/orange_2bandit_a.png","70","test","","","","","","","","","3","","","","","","","","","","",""
"null","","2473679","SARL_v6ktf02s20","msl000058","fixation","","","img/fixation.png","null","","","test","","","","","","","","","","","","","","","","","","","",""
"307","","2473991","SARL_v6ktf02s20","msl000058","infreq","","","img/green_2bandit_a2.png","70","","68","test","0","","","square","circle","65","63","13","3","0.9365079365079365","","","","","","","","","",""
"null","","2474490","SARL_v6ktf02s20","msl000058","infreq_resp","","","img/green_2bandit_a.png","70","img/green_2bandit_a.png","68","test","","","","","","","","","3","","","","","","","","","","",""
"null","","2474646","SARL_v6ktf02s20","msl000058","fixation","","","img/fixation.png","null","","","test","","","","","","","","","","","","","","","","","","","",""
"407","","2475058","SARL_v6ktf02s20","msl000058","freq","","","img/orange_2bandit_a2.png","70","","70","test","1","","","square","circle","66","64","14","3","0.9375","","","","","","","","","",""
"null","","2475457","SARL_v6ktf02s20","msl000058","freq_resp","","","img/orange_2bandit_a.png","70","img/orange_2bandit_a.png","70","test","","","","","","","","","3","","","","","","","","","","",""
"null","","2475612","SARL_v6ktf02s20","msl000058","fixation","","","img/fixation.png","null","","","test","","","","","","","","","","","","","","","","","","","",""
"280","","2475897","SARL_v6ktf02s20","msl000058","freq","","","img/orange_2bandit_a2.png","70","","70","test","1","","","square","circle","67","65","15","3","0.9384615384615385","","","","","","","","","",""
"null","","2476422","SARL_v6ktf02s20","msl000058","freq_resp","","","img/orange_2bandit_a.png","70","img/orange_2bandit_a.png","70","test","","","","","","","","","3","","","","","","","","","","",""
"null","","2476577","SARL_v6ktf02s20","msl000058","fixation","","","img/fixation.png","null","","","test","","","","","","","","","","","","","","","","","","","",""
"344","","2476926","SARL_v6ktf02s20","msl000058","freq","","","img/orange_2bandit_a2.png","70","","70","test","1","","","square","circle","68","66","16","3","0.9393939393939394","","","","","","","","","",""
"null","","2477389","SARL_v6ktf02s20","msl000058","freq_resp","","","img/orange_2bandit_a.png","70","img/orange_2bandit_a.png","70","test","","","","","","","","","3","","","","","","","","","","",""
"null","","2477544","SARL_v6ktf02s20","msl000058","fixation","","","img/fixation.png","null","","","test","","","","","","","","","","","","","","","","","","","",""
"315","","2477863","SARL_v6ktf02s20","msl000058","freq","","","img/orange_2bandit_a2.png","70","","70","test","1","","","square","circle","69","67","17","3","0.9402985074626866","","","","","","","","","",""
"null","","2478354","SARL_v6ktf02s20","msl000058","freq_resp","","","img/orange_2bandit_a.png","70","img/orange_2bandit_a.png","70","test","","","","","","","","","3","","","","","","","","","","",""
"null","","2478511","SARL_v6ktf02s20","msl000058","fixation","","","img/fixation.png","null","","","test","","","","","","","","","","","","","","","","","","","",""
"252","","2478769","SARL_v6ktf02s20","msl000058","freq","","","img/orange_2bandit_a2.png","70","","70","test","1","","","square","circle","70","68","18","3","0.9411764705882353","","","","","","","","","",""
"null","","2479322","SARL_v6ktf02s20","msl000058","freq_resp","","","img/orange_2bandit_a.png","70","img/orange_2bandit_a.png","70","test","","","","","","","","","3","","","","","","","","","","",""
"null","","2479478","SARL_v6ktf02s20","msl000058","fixation","","","img/fixation.png","null","","","test","","","","","","","","","","","","","","","","","","","",""
"180","","2479662","SARL_v6ktf02s20","msl000058","infreq","","","img/green_2bandit_a2.png","70","","68","test","0","","","square","circle","71","69","19","3","0.927536231884058","","","","","","","","","",""
"null","","2480289","SARL_v6ktf02s20","msl000058","infreq_resp","","","img/green_2bandit_a.png","70","img/green_2bandit_a.png","68","test","","","","","","","","","3","","","","","","","","","","",""
"null","","2480443","SARL_v6ktf02s20","msl000058","fixation","","","img/fixation.png","null","","","test","","","","","","","","","","","","","","","","","","","",""
"350","","2480800","SARL_v6ktf02s20","msl000058","freq","","","img/orange_2bandit_a2.png","70","","70","test","1","","","square","circle","72","70","20","3","0.9285714285714286","","","","","","","","","",""
"null","","2481254","SARL_v6ktf02s20","msl000058","freq_resp","","","img/orange_2bandit_a.png","70","img/orange_2bandit_a.png","70","test","","","","","","","","","3","","","","","","","","","","",""
"null","","2481410","SARL_v6ktf02s20","msl000058","fixation","","","img/fixation.png","null","","","test","","","","","","","","","","","","","","","","","","","",""
"169","","2481584","SARL_v6ktf02s20","msl000058","freq","","","img/orange_2bandit_a2.png","70","","70","test","1","","","square","circle","73","71","21","3","0.9295774647887324","","","","","","","","","",""
"null","","2482221","SARL_v6ktf02s20","msl000058","freq_resp","","","img/orange_2bandit_a.png","70","img/orange_2bandit_a.png","70","test","","","","","","","","","3","","","","","","","","","","",""
"null","","2482376","SARL_v6ktf02s20","msl000058","fixation","","","img/fixation.png","null","","","test","","","","","","","","","","","","","","","","","","","",""
"127","","2482509","SARL_v6ktf02s20","msl000058","freq","","","img/orange_2bandit_a2.png","70","","70","test","1","","","square","circle","74","72","22","3","0.9305555555555556","","","","","","","","","",""
"null","","2483189","SARL_v6ktf02s20","msl000058","freq_resp","","","img/orange_2bandit_a.png","70","img/orange_2bandit_a.png","70","test","","","","","","","","","3","","","","","","","","","","",""
"null","","2483343","SARL_v6ktf02s20","msl000058","fixation","","","img/fixation.png","null","","","test","","","","","","","","","","","","","","","","","","","",""
"79","","2483428","SARL_v6ktf02s20","msl000058","freq","","","img/orange_2bandit_a2.png","70","","70","test","1","","","square","circle","75","73","23","3","0.9315068493150684","","","","","","","","","",""
"null","","2484153","SARL_v6ktf02s20","msl000058","freq_resp","","","img/orange_2bandit_a.png","70","img/orange_2bandit_a.png","70","test","","","","","","","","","3","","","","","","","","","","",""
"null","","2484309","SARL_v6ktf02s20","msl000058","fixation","","","img/fixation.png","null","","","test","","","","","","","","","","","","","","","","","","","",""
"313","","2484627","SARL_v6ktf02s20","msl000058","freq","","","img/orange_2bandit_a2.png","70","","70","test","1","","","square","circle","76","74","24","3","0.9324324324324325","","","","","","","","","",""
"null","","2485120","SARL_v6ktf02s20","msl000058","freq_resp","","","img/orange_2bandit_a.png","70","img/orange_2bandit_a.png","70","test","","","","","","","","","3","","","","","","","","","","",""
"null","","2485276","SARL_v6ktf02s20","msl000058","fixation","","","img/fixation.png","null","","","test","","","","","","","","","","","","","","","","","","","",""
"310","","2485590","SARL_v6ktf02s20","msl000058","freq","","","img/orange_2bandit_a2.png","70","","70","test","1","","","square","circle","77","75","25","3","0.9333333333333333","","","","","","","","","",""
"null","","2486085","SARL_v6ktf02s20","msl000058","freq_resp","","","img/orange_2bandit_a.png","70","img/orange_2bandit_a.png","70","test","","","","","","","","","3","","","","","","","","","","",""
"null","","2486241","SARL_v6ktf02s20","msl000058","fixation","","","img/fixation.png","null","","","test","","","","","","","","","","","","","","","","","","","",""
"325","","2486568","SARL_v6ktf02s20","msl000058","freq","","","img/orange_2bandit_a2.png","70","","70","test","1","","","square","circle","78","76","26","3","0.9342105263157895","","","","","","","","","",""
"null","","2487049","SARL_v6ktf02s20","msl000058","freq_resp","","","img/orange_2bandit_a.png","70","img/orange_2bandit_a.png","70","test","","","","","","","","","3","","","","","","","","","","",""
"null","","2487205","SARL_v6ktf02s20","msl000058","fixation","","","img/fixation.png","null","","","test","","","","","","","","","","","","","","","","","","","",""
"337","","2487546","SARL_v6ktf02s20","msl000058","freq","","","img/orange_2bandit_a2.png","70","","70","test","1","","","square","circle","79","77","27","3","0.935064935064935","","","","","","","","","",""
"null","","2488014","SARL_v6ktf02s20","msl000058","freq_resp","","","img/orange_2bandit_a.png","70","img/orange_2bandit_a.png","70","test","","","","","","","","","3","","","","","","","","","","",""
"null","","2488170","SARL_v6ktf02s20","msl000058","fixation","","","img/fixation.png","null","","","test","","","","","","","","","","","","","","","","","","","",""
"517","","2488691","SARL_v6ktf02s20","msl000058","rl","","","img/black_2bandit_a2.png","75","","0","test","","","1","square","circle","80","","0","3","","75","0.8","0.2","0.30754574768070475","0.2","0.8","0.8","circle","3","0"
"null","","2489446","SARL_v6ktf02s20","msl000058","feedback","","","img/yay_R_a.png","null","","na","test","","","","","","","","","3","","75","0.8","0.2","","","","0.8","","3",""
"null","","2490253","SARL_v6ktf02s20","msl000058","freq","","","img/orange_2bandit_a2.png","null","","70","test","0","","","square","circle","81","78","1","4","0.9230769230769231","","","","","","","","","",""
"null","","2490408","SARL_v6ktf02s20","msl000058","fixation","","","img/fixation.png","null","","","test","","","","","","","","","","","","","","","","","","","",""
"61","","2490474","SARL_v6ktf02s20","msl000058","infreq","","","img/green_2bandit_a2.png","70","","68","test","0","","","square","circle","82","79","2","4","0.9113924050632911","","","","","","","","","",""
"null","","2491218","SARL_v6ktf02s20","msl000058","infreq_resp","","","img/green_2bandit_a.png","70","img/green_2bandit_a.png","68","test","","","","","","","","","4","","","","","","","","","","",""
"null","","2491373","SARL_v6ktf02s20","msl000058","fixation","","","img/fixation.png","null","","","test","","","","","","","","","","","","","","","","","","","",""
"389","","2491766","SARL_v6ktf02s20","msl000058","freq","","","img/orange_2bandit_a2.png","70","","70","test","1","","","square","circle","83","80","3","4","0.9125","","","","","","","","","",""
"null","","2492182","SARL_v6ktf02s20","msl000058","freq_resp","","","img/orange_2bandit_a.png","70","img/orange_2bandit_a.png","70","test","","","","","","","","","4","","","","","","","","","","",""
"null","","2492338","SARL_v6ktf02s20","msl000058","fixation","","","img/fixation.png","null","","","test","","","","","","","","","","","","","","","","","","","",""
"311","","2492653","SARL_v6ktf02s20","msl000058","freq","","","img/orange_2bandit_a2.png","70","","70","test","1","","","square","circle","84","81","4","4","0.9135802469135802","","","","","","","","","",""
"null","","2493148","SARL_v6ktf02s20","msl000058","freq_resp","","","img/orange_2bandit_a.png","70","img/orange_2bandit_a.png","70","test","","","","","","","","","4","","","","","","","","","","",""
"null","","2493304","SARL_v6ktf02s20","msl000058","fixation","","","img/fixation.png","null","","","test","","","","","","","","","","","","","","","","","","","",""
"174","","2493483","SARL_v6ktf02s20","msl000058","freq","","","img/orange_2bandit_a2.png","70","","70","test","1","","","square","circle","85","82","5","4","0.9146341463414634","","","","","","","","","",""
"null","","2494115","SARL_v6ktf02s20","msl000058","freq_resp","","","img/orange_2bandit_a.png","70","img/orange_2bandit_a.png","70","test","","","","","","","","","4","","","","","","","","","","",""
"null","","2494271","SARL_v6ktf02s20","msl000058","fixation","","","img/fixation.png","null","","","test","","","","","","","","","","","","","","","","","","","",""
"122","","2494398","SARL_v6ktf02s20","msl000058","freq","","","img/orange_2bandit_a2.png","70","","70","test","1","","","square","circle","86","83","6","4","0.9156626506024096","","","","","","","","","",""
"null","","2495082","SARL_v6ktf02s20","msl000058","freq_resp","","","img/orange_2bandit_a.png","70","img/orange_2bandit_a.png","70","test","","","","","","","","","4","","","","","","","","","","",""
"null","","2495237","SARL_v6ktf02s20","msl000058","fixation","","","img/fixation.png","null","","","test","","","","","","","","","","","","","","","","","","","",""
"372","","2495615","SARL_v6ktf02s20","msl000058","freq","","","img/orange_2bandit_a2.png","70","","70","test","1","","","square","circle","87","84","7","4","0.9166666666666666","","","","","","","","","",""
"null","","2496048","SARL_v6ktf02s20","msl000058","freq_resp","","","img/orange_2bandit_a.png","70","img/orange_2bandit_a.png","70","test","","","","","","","","","4","","","","","","","","","","",""
"null","","2496203","SARL_v6ktf02s20","msl000058","fixation","","","img/fixation.png","null","","","test","","","","","","","","","","","","","","","","","","","",""
"345","","2496553","SARL_v6ktf02s20","msl000058","freq","","","img/orange_2bandit_a2.png","70","","70","test","1","","","square","circle","88","85","8","4","0.9176470588235294","","","","","","","","","",""
"null","","2497014","SARL_v6ktf02s20","msl000058","freq_resp","","","img/orange_2bandit_a.png","70","img/orange_2bandit_a.png","70","test","","","","","","","","","4","","","","","","","","","","",""
"null","","2497170","SARL_v6ktf02s20","msl000058","fixation","","","img/fixation.png","null","","","test","","","","","","","","","","","","","","","","","","","",""
"302","","2497476","SARL_v6ktf02s20","msl000058","freq","","","img/orange_2bandit_a2.png","70","","70","test","1","","","square","circle","89","86","9","4","0.9186046511627907","","","","","","","","","",""
"null","","2497980","SARL_v6ktf02s20","msl000058","freq_resp","","","img/orange_2bandit_a.png","70","img/orange_2bandit_a.png","70","test","","","","","","","","","4","","","","","","","","","","",""
"null","","2498135","SARL_v6ktf02s20","msl000058","fixation","","","img/fixation.png","null","","","test","","","","","","","","","","","","","","","","","","","",""
"151","","2498290","SARL_v6ktf02s20","msl000058","freq","","","img/orange_2bandit_a2.png","70","","70","test","1","","","square","circle","90","87","10","4","0.9195402298850575","","","","","","","","","",""
"null","","2498946","SARL_v6ktf02s20","msl000058","freq_resp","","","img/orange_2bandit_a.png","70","img/orange_2bandit_a.png","70","test","","","","","","","","","4","","","","","","","","","","",""
"null","","2499101","SARL_v6ktf02s20","msl000058","fixation","","","img/fixation.png","null","","","test","","","","","","","","","","","","","","","","","","","",""
"152","","2499259","SARL_v6ktf02s20","msl000058","freq","","","img/orange_2bandit_a2.png","70","","70","test","1","","","square","circle","91","88","11","4","0.9204545454545454","","","","","","","","","",""
"null","","2499913","SARL_v6ktf02s20","msl000058","freq_resp","","","img/orange_2bandit_a.png","70","img/orange_2bandit_a.png","70","test","","","","","","","","","4","","","","","","","","","","",""
"null","","2500067","SARL_v6ktf02s20","msl000058","fixation","","","img/fixation.png","null","","","test","","","","","","","","","","","","","","","","","","","",""
"169","","2500242","SARL_v6ktf02s20","msl000058","freq","","","img/orange_2bandit_a2.png","70","","70","test","1","","","square","circle","92","89","12","4","0.9213483146067416","","","","","","","","","",""
"null","","2500880","SARL_v6ktf02s20","msl000058","freq_resp","","","img/orange_2bandit_a.png","70","img/orange_2bandit_a.png","70","test","","","","","","","","","4","","","","","","","","","","",""
"null","","2501035","SARL_v6ktf02s20","msl000058","fixation","","","img/fixation.png","null","","","test","","","","","","","","","","","","","","","","","","","",""
"325","","2501365","SARL_v6ktf02s20","msl000058","freq","","","img/orange_2bandit_a2.png","70","","70","test","1","","","square","circle","93","90","13","4","0.9222222222222223","","","","","","","","","",""
"null","","2501846","SARL_v6ktf02s20","msl000058","freq_resp","","","img/orange_2bandit_a.png","70","img/orange_2bandit_a.png","70","test","","","","","","","","","4","","","","","","","","","","",""
"null","","2502002","SARL_v6ktf02s20","msl000058","fixation","","","img/fixation.png","null","","","test","","","","","","","","","","","","","","","","","","","",""
"180","","2502187","SARL_v6ktf02s20","msl000058","freq","","","img/orange_2bandit_a2.png","70","","70","test","1","","","square","circle","94","91","14","4","0.9230769230769231","","","","","","","","","",""
"null","","2502812","SARL_v6ktf02s20","msl000058","freq_resp","","","img/orange_2bandit_a.png","70","img/orange_2bandit_a.png","70","test","","","","","","","","","4","","","","","","","","","","",""
"null","","2502969","SARL_v6ktf02s20","msl000058","fixation","","","img/fixation.png","null","","","test","","","","","","","","","","","","","","","","","","","",""
"152","","2503125","SARL_v6ktf02s20","msl000058","freq","","","img/orange_2bandit_a2.png","70","","70","test","1","","","square","circle","95","92","15","4","0.9239130434782609","","","","","","","","","",""
"null","","2503779","SARL_v6ktf02s20","msl000058","freq_resp","","","img/orange_2bandit_a.png","70","img/orange_2bandit_a.png","70","test","","","","","","","","","4","","","","","","","","","","",""
"null","","2503934","SARL_v6ktf02s20","msl000058","fixation","","","img/fixation.png","null","","","test","","","","","","","","","","","","","","","","","","","",""
"172","","2504111","SARL_v6ktf02s20","msl000058","infreq","","","img/green_2bandit_a2.png","70","","68","test","0","","","square","circle","96","93","16","4","0.9139784946236559","","","","","","","","","",""
"null","","2504745","SARL_v6ktf02s20","msl000058","infreq_resp","","","img/green_2bandit_a.png","70","img/green_2bandit_a.png","68","test","","","","","","","","","4","","","","","","","","","","",""
"null","","2504901","SARL_v6ktf02s20","msl000058","fixation","","","img/fixation.png","null","","","test","","","","","","","","","","","","","","","","","","","",""
"349","","2505255","SARL_v6ktf02s20","msl000058","freq","","","img/orange_2bandit_a2.png","70","","70","test","1","","","square","circle","97","94","17","4","0.9148936170212766","","","","","","","","","",""
"null","","2505711","SARL_v6ktf02s20","msl000058","freq_resp","","","img/orange_2bandit_a.png","70","img/orange_2bandit_a.png","70","test","","","","","","","","","4","","","","","","","","","","",""
"null","","2505867","SARL_v6ktf02s20","msl000058","fixation","","","img/fixation.png","null","","","test","","","","","","","","","","","","","","","","","","","",""
"599","","2506468","SARL_v6ktf02s20","msl000058","freq","","","img/orange_2bandit_a2.png","70","","70","test","1","","","square","circle","98","95","18","4","0.9157894736842105","","","","","","","","","",""
"null","","2506676","SARL_v6ktf02s20","msl000058","freq_resp","","","img/orange_2bandit_a.png","70","img/orange_2bandit_a.png","70","test","","","","","","","","","4","","","","","","","","","","",""
"null","","2506832","SARL_v6ktf02s20","msl000058","fixation","","","img/fixation.png","null","","","test","","","","","","","","","","","","","","","","","","","",""
"410","","2507247","SARL_v6ktf02s20","msl000058","freq","","","img/orange_2bandit_a2.png","70","","70","test","1","","","square","circle","99","96","19","4","0.9166666666666666","","","","","","","","","",""
"null","","2507644","SARL_v6ktf02s20","msl000058","freq_resp","","","img/orange_2bandit_a.png","70","img/orange_2bandit_a.png","70","test","","","","","","","","","4","","","","","","","","","","",""
"null","","2507800","SARL_v6ktf02s20","msl000058","fixation","","","img/fixation.png","null","","","test","","","","","","","","","","","","","","","","","","","",""
"324","","2508130","SARL_v6ktf02s20","msl000058","freq","","","img/orange_2bandit_a2.png","70","","70","test","1","","","square","circle","100","97","20","4","0.9175257731958762","","","","","","","","","",""
"null","","2508610","SARL_v6ktf02s20","msl000058","freq_resp","","","img/orange_2bandit_a.png","70","img/orange_2bandit_a.png","70","test","","","","","","","","","4","","","","","","","","","","",""
"null","","2508767","SARL_v6ktf02s20","msl000058","fixation","","","img/fixation.png","null","","","test","","","","","","","","","","","","","","","","","","","",""
"196","","2508967","SARL_v6ktf02s20","msl000058","freq","","","img/orange_2bandit_a2.png","70","","70","test","1","","","square","circle","101","98","21","4","0.9183673469387755","","","","","","","","","",""
"null","","2509577","SARL_v6ktf02s20","msl000058","freq_resp","","","img/orange_2bandit_a.png","70","img/orange_2bandit_a.png","70","test","","","","","","","","","4","","","","","","","","","","",""
"null","","2509732","SARL_v6ktf02s20","msl000058","fixation","","","img/fixation.png","null","","","test","","","","","","","","","","","","","","","","","","","",""
"310","","2510047","SARL_v6ktf02s20","msl000058","freq","","","img/orange_2bandit_a2.png","70","","70","test","1","","","square","circle","102","99","22","4","0.9191919191919192","","","","","","","","","",""
"null","","2510541","SARL_v6ktf02s20","msl000058","freq_resp","","","img/orange_2bandit_a.png","70","img/orange_2bandit_a.png","70","test","","","","","","","","","4","","","","","","","","","","",""
"null","","2510697","SARL_v6ktf02s20","msl000058","fixation","","","img/fixation.png","null","","","test","","","","","","","","","","","","","","","","","","","",""
"168","","2510870","SARL_v6ktf02s20","msl000058","freq","","","img/orange_2bandit_a2.png","70","","70","test","1","","","square","circle","103","100","23","4","0.92","","","","","","","","","",""
"null","","2511509","SARL_v6ktf02s20","msl000058","freq_resp","","","img/orange_2bandit_a.png","70","img/orange_2bandit_a.png","70","test","","","","","","","","","4","","","","","","","","","","",""
"null","","2511664","SARL_v6ktf02s20","msl000058","fixation","","","img/fixation.png","null","","","test","","","","","","","","","","","","","","","","","","","",""
"91","","2511759","SARL_v6ktf02s20","msl000058","freq","","","img/orange_2bandit_a2.png","70","","70","test","1","","","square","circle","104","101","24","4","0.9207920792079208","","","","","","","","","",""
"null","","2512473","SARL_v6ktf02s20","msl000058","freq_resp","","","img/orange_2bandit_a.png","70","img/orange_2bandit_a.png","70","test","","","","","","","","","4","","","","","","","","","","",""
"null","","2512628","SARL_v6ktf02s20","msl000058","fixation","","","img/fixation.png","null","","","test","","","","","","","","","","","","","","","","","","","",""
"62","","2512695","SARL_v6ktf02s20","msl000058","freq","","","img/orange_2bandit_a2.png","70","","70","test","1","","","square","circle","105","102","25","4","0.9215686274509803","","","","","","","","","",""
"null","","2513439","SARL_v6ktf02s20","msl000058","freq_resp","","","img/orange_2bandit_a.png","70","img/orange_2bandit_a.png","70","test","","","","","","","","","4","","","","","","","","","","",""
"null","","2513594","SARL_v6ktf02s20","msl000058","fixation","","","img/fixation.png","null","","","test","","","","","","","","","","","","","","","","","","","",""
"311","","2513910","SARL_v6ktf02s20","msl000058","freq","","","img/orange_2bandit_a2.png","70","","70","test","1","","","square","circle","106","103","26","4","0.9223300970873787","","","","","","","","","",""
"null","","2514404","SARL_v6ktf02s20","msl000058","freq_resp","","","img/orange_2bandit_a.png","70","img/orange_2bandit_a.png","70","test","","","","","","","","","4","","","","","","","","","","",""
"null","","2514559","SARL_v6ktf02s20","msl000058","fixation","","","img/fixation.png","null","","","test","","","","","","","","","","","","","","","","","","","",""
"135","","2514699","SARL_v6ktf02s20","msl000058","freq","","","img/orange_2bandit_a2.png","70","","70","test","1","","","square","circle","107","104","27","4","0.9230769230769231","","","","","","","","","",""
"null","","2515370","SARL_v6ktf02s20","msl000058","freq_resp","","","img/orange_2bandit_a.png","70","img/orange_2bandit_a.png","70","test","","","","","","","","","4","","","","","","","","","","",""
"null","","2515526","SARL_v6ktf02s20","msl000058","fixation","","","img/fixation.png","null","","","test","","","","","","","","","","","","","","","","","","","",""
"567","","2516098","SARL_v6ktf02s20","msl000058","rl","","","img/black_2bandit_a2.png","74","","0","test","","","0","square","circle","108","","0","4","","74","0.8","0.2","0.2783521434549704","0.2","0.8","0.2","square","4","0"
"null","","2516854","SARL_v6ktf02s20","msl000058","feedback","","","img/boo_L_a.png","null","","na","test","","","","","","","","","4","","74","0.8","0.2","","","","0.2","","4",""
"414","","2517272","SARL_v6ktf02s20","msl000058","freq","","","img/orange_2bandit_a2.png","70","","70","test","1","","","square","circle","109","105","1","5","0.9238095238095239","","","","","","","","","",""
"null","","2517664","SARL_v6ktf02s20","msl000058","freq_resp","","","img/orange_2bandit_a.png","70","img/orange_2bandit_a.png","70","test","","","","","","","","","5","","","","","","","","","","",""
"null","","2517820","SARL_v6ktf02s20","msl000058","fixation","","","img/fixation.png","null","","","test","","","","","","","","","","","","","","","","","","","",""
"531","","2518356","SARL_v6ktf02s20","msl000058","infreq","","","img/green_2bandit_a2.png","68","","68","test","1","","","square","circle","110","106","2","5","0.9245283018867925","","","","","","","","","",""
"null","","2518630","SARL_v6ktf02s20","msl000058","infreq_resp","","","img/green_2bandit_a.png","68","img/green_2bandit_a.png","68","test","","","","","","","","","5","","","","","","","","","","",""
"null","","2518785","SARL_v6ktf02s20","msl000058","fixation","","","img/fixation.png","null","","","test","","","","","","","","","","","","","","","","","","","",""
"371","","2519160","SARL_v6ktf02s20","msl000058","freq","","","img/orange_2bandit_a2.png","70","","70","test","1","","","square","circle","111","107","3","5","0.9252336448598131","","","","","","","","","",""
"null","","2519595","SARL_v6ktf02s20","msl000058","freq_resp","","","img/orange_2bandit_a.png","70","img/orange_2bandit_a.png","70","test","","","","","","","","","5","","","","","","","","","","",""
"null","","2519751","SARL_v6ktf02s20","msl000058","fixation","","","img/fixation.png","null","","","test","","","","","","","","","","","","","","","","","","","",""
"303","","2520058","SARL_v6ktf02s20","msl000058","freq","","","img/orange_2bandit_a2.png","70","","70","test","1","","","square","circle","112","108","4","5","0.9259259259259259","","","","","","","","","",""
"null","","2520561","SARL_v6ktf02s20","msl000058","freq_resp","","","img/orange_2bandit_a.png","70","img/orange_2bandit_a.png","70","test","","","","","","","","","5","","","","","","","","","","",""
"null","","2520718","SARL_v6ktf02s20","msl000058","fixation","","","img/fixation.png","null","","","test","","","","","","","","","","","","","","","","","","","",""
"304","","2521026","SARL_v6ktf02s20","msl000058","freq","","","img/orange_2bandit_a2.png","70","","70","test","1","","","square","circle","113","109","5","5","0.926605504587156","","","","","","","","","",""
"null","","2521527","SARL_v6ktf02s20","msl000058","freq_resp","","","img/orange_2bandit_a.png","70","img/orange_2bandit_a.png","70","test","","","","","","","","","5","","","","","","","","","","",""
"null","","2521682","SARL_v6ktf02s20","msl000058","fixation","","","img/fixation.png","null","","","test","","","","","","","","","","","","","","","","","","","",""
"249","","2521935","SARL_v6ktf02s20","msl000058","freq","","","img/orange_2bandit_a2.png","70","","70","test","1","","","square","circle","114","110","6","5","0.9272727272727272","","","","","","","","","",""
"null","","2522491","SARL_v6ktf02s20","msl000058","freq_resp","","","img/orange_2bandit_a.png","70","img/orange_2bandit_a.png","70","test","","","","","","","","","5","","","","","","","","","","",""
"null","","2522646","SARL_v6ktf02s20","msl000058","fixation","","","img/fixation.png","null","","","test","","","","","","","","","","","","","","","","","","","",""
"118","","2522769","SARL_v6ktf02s20","msl000058","freq","","","img/orange_2bandit_a2.png","70","","70","test","1","","","square","circle","115","111","7","5","0.9279279279279279","","","","","","","","","",""
"null","","2523457","SARL_v6ktf02s20","msl000058","freq_resp","","","img/orange_2bandit_a.png","70","img/orange_2bandit_a.png","70","test","","","","","","","","","5","","","","","","","","","","",""
"null","","2523612","SARL_v6ktf02s20","msl000058","fixation","","","img/fixation.png","null","","","test","","","","","","","","","","","","","","","","","","","",""
"255","","2523872","SARL_v6ktf02s20","msl000058","freq","","","img/orange_2bandit_a2.png","70","","70","test","1","","","square","circle","116","112","8","5","0.9285714285714286","","","","","","","","","",""
"null","","2524423","SARL_v6ktf02s20","msl000058","freq_resp","","","img/orange_2bandit_a.png","70","img/orange_2bandit_a.png","70","test","","","","","","","","","5","","","","","","","","","","",""
"null","","2524579","SARL_v6ktf02s20","msl000058","fixation","","","img/fixation.png","null","","","test","","","","","","","","","","","","","","","","","","","",""
"101","","2524685","SARL_v6ktf02s20","msl000058","freq","","","img/orange_2bandit_a2.png","70","","70","test","1","","","square","circle","117","113","9","5","0.9292035398230089","","","","","","","","","",""
"null","","2525390","SARL_v6ktf02s20","msl000058","freq_resp","","","img/orange_2bandit_a.png","70","img/orange_2bandit_a.png","70","test","","","","","","","","","5","","","","","","","","","","",""
"null","","2525544","SARL_v6ktf02s20","msl000058","fixation","","","img/fixation.png","null","","","test","","","","","","","","","","","","","","","","","","","",""
"100","","2525649","SARL_v6ktf02s20","msl000058","freq","","","img/orange_2bandit_a2.png","70","","70","test","1","","","square","circle","118","114","10","5","0.9298245614035088","","","","","","","","","",""
"null","","2526354","SARL_v6ktf02s20","msl000058","freq_resp","","","img/orange_2bandit_a.png","70","img/orange_2bandit_a.png","70","test","","","","","","","","","5","","","","","","","","","","",""
"null","","2526510","SARL_v6ktf02s20","msl000058","fixation","","","img/fixation.png","null","","","test","","","","","","","","","","","","","","","","","","","",""
"302","","2526818","SARL_v6ktf02s20","msl000058","freq","","","img/orange_2bandit_a2.png","70","","70","test","1","","","square","circle","119","115","11","5","0.9304347826086956","","","","","","","","","",""
"null","","2527321","SARL_v6ktf02s20","msl000058","freq_resp","","","img/orange_2bandit_a.png","70","img/orange_2bandit_a.png","70","test","","","","","","","","","5","","","","","","","","","","",""
"null","","2527476","SARL_v6ktf02s20","msl000058","fixation","","","img/fixation.png","null","","","test","","","","","","","","","","","","","","","","","","","",""
"299","","2527781","SARL_v6ktf02s20","msl000058","freq","","","img/orange_2bandit_a2.png","70","","70","test","1","","","square","circle","120","116","12","5","0.9310344827586207","","","","","","","","","",""
"null","","2528288","SARL_v6ktf02s20","msl000058","freq_resp","","","img/orange_2bandit_a.png","70","img/orange_2bandit_a.png","70","test","","","","","","","","","5","","","","","","","","","","",""
"null","","2528443","SARL_v6ktf02s20","msl000058","fixation","","","img/fixation.png","null","","","test","","","","","","","","","","","","","","","","","","","",""
"101","","2528550","SARL_v6ktf02s20","msl000058","freq","","","img/orange_2bandit_a2.png","70","","70","test","1","","","square","circle","121","117","13","5","0.9316239316239316","","","","","","","","","",""
"null","","2529254","SARL_v6ktf02s20","msl000058","freq_resp","","","img/orange_2bandit_a.png","70","img/orange_2bandit_a.png","70","test","","","","","","","","","5","","","","","","","","","","",""
"null","","2529409","SARL_v6ktf02s20","msl000058","fixation","","","img/fixation.png","null","","","test","","","","","","","","","","","","","","","","","","","",""
"281","","2529695","SARL_v6ktf02s20","msl000058","freq","","","img/orange_2bandit_a2.png","70","","70","test","1","","","square","circle","122","118","14","5","0.9322033898305084","","","","","","","","","",""
"null","","2530219","SARL_v6ktf02s20","msl000058","freq_resp","","","img/orange_2bandit_a.png","70","img/orange_2bandit_a.png","70","test","","","","","","","","","5","","","","","","","","","","",""
"null","","2530373","SARL_v6ktf02s20","msl000058","fixation","","","img/fixation.png","null","","","test","","","","","","","","","","","","","","","","","","","",""
"302","","2530681","SARL_v6ktf02s20","msl000058","freq","","","img/orange_2bandit_a2.png","70","","70","test","1","","","square","circle","123","119","15","5","0.9327731092436975","","","","","","","","","",""
"null","","2531185","SARL_v6ktf02s20","msl000058","freq_resp","","","img/orange_2bandit_a.png","70","img/orange_2bandit_a.png","70","test","","","","","","","","","5","","","","","","","","","","",""
"null","","2531342","SARL_v6ktf02s20","msl000058","fixation","","","img/fixation.png","null","","","test","","","","","","","","","","","","","","","","","","","",""
"258","","2531604","SARL_v6ktf02s20","msl000058","freq","","","img/orange_2bandit_a2.png","70","","70","test","1","","","square","circle","124","120","16","5","0.9333333333333333","","","","","","","","","",""
"null","","2532153","SARL_v6ktf02s20","msl000058","freq_resp","","","img/orange_2bandit_a.png","70","img/orange_2bandit_a.png","70","test","","","","","","","","","5","","","","","","","","","","",""
"null","","2532310","SARL_v6ktf02s20","msl000058","fixation","","","img/fixation.png","null","","","test","","","","","","","","","","","","","","","","","","","",""
"144","","2532457","SARL_v6ktf02s20","msl000058","infreq","","","img/green_2bandit_a2.png","70","","68","test","0","","","square","circle","125","121","17","5","0.9256198347107438","","","","","","","","","",""
"null","","2533119","SARL_v6ktf02s20","msl000058","infreq_resp","","","img/green_2bandit_a.png","70","img/green_2bandit_a.png","68","test","","","","","","","","","5","","","","","","","","","","",""
"null","","2533275","SARL_v6ktf02s20","msl000058","fixation","","","img/fixation.png","null","","","test","","","","","","","","","","","","","","","","","","","",""
"331","","2533612","SARL_v6ktf02s20","msl000058","freq","","","img/orange_2bandit_a2.png","70","","70","test","1","","","square","circle","126","122","18","5","0.9262295081967213","","","","","","","","","",""
"null","","2534089","SARL_v6ktf02s20","msl000058","freq_resp","","","img/orange_2bandit_a.png","70","img/orange_2bandit_a.png","70","test","","","","","","","","","5","","","","","","","","","","",""
"null","","2534245","SARL_v6ktf02s20","msl000058","fixation","","","img/fixation.png","null","","","test","","","","","","","","","","","","","","","","","","","",""
"185","","2534435","SARL_v6ktf02s20","msl000058","freq","","","img/orange_2bandit_a2.png","70","","70","test","1","","","square","circle","127","123","19","5","0.926829268292683","","","","","","","","","",""
"null","","2535054","SARL_v6ktf02s20","msl000058","freq_resp","","","img/orange_2bandit_a.png","70","img/orange_2bandit_a.png","70","test","","","","","","","","","5","","","","","","","","","","",""
"null","","2535211","SARL_v6ktf02s20","msl000058","fixation","","","img/fixation.png","null","","","test","","","","","","","","","","","","","","","","","","","",""
"488","","2535706","SARL_v6ktf02s20","msl000058","rl","","","img/black_2bandit_a2.png","75","","0","test","","","1","square","circle","128","","0","5","","75","0.8","0.2","0.6784772278479788","0.2","0.8","0.8","circle","5","0"
"null","","2536462","SARL_v6ktf02s20","msl000058","feedback","","","img/yay_R_a.png","null","","na","test","","","","","","","","","5","","75","0.8","0.2","","","","0.8","","5",""
"430","","2536898","SARL_v6ktf02s20","msl000058","freq","","","img/orange_2bandit_a2.png","70","","70","test","1","","","square","circle","129","124","1","6","0.9274193548387096","","","","","","","","","",""
"null","","2537274","SARL_v6ktf02s20","msl000058","freq_resp","","","img/orange_2bandit_a.png","70","img/orange_2bandit_a.png","70","test","","","","","","","","","6","","","","","","","","","","",""
"null","","2537429","SARL_v6ktf02s20","msl000058","fixation","","","img/fixation.png","null","","","test","","","","","","","","","","","","","","","","","","","",""
"200","","2537633","SARL_v6ktf02s20","msl000058","freq","","","img/orange_2bandit_a2.png","70","","70","test","1","","","square","circle","130","125","2","6","0.928","","","","","","","","","",""
"null","","2538239","SARL_v6ktf02s20","msl000058","freq_resp","","","img/orange_2bandit_a.png","70","img/orange_2bandit_a.png","70","test","","","","","","","","","6","","","","","","","","","","",""
"null","","2538395","SARL_v6ktf02s20","msl000058","fixation","","","img/fixation.png","null","","","test","","","","","","","","","","","","","","","","","","","",""
"127","","2538526","SARL_v6ktf02s20","msl000058","freq","","","img/orange_2bandit_a2.png","70","","70","test","1","","","square","circle","131","126","3","6","0.9285714285714286","","","","","","","","","",""
"null","","2539205","SARL_v6ktf02s20","msl000058","freq_resp","","","img/orange_2bandit_a.png","70","img/orange_2bandit_a.png","70","test","","","","","","","","","6","","","","","","","","","","",""
"null","","2539360","SARL_v6ktf02s20","msl000058","fixation","","","img/fixation.png","null","","","test","","","","","","","","","","","","","","","","","","","",""
"18","","2539382","SARL_v6ktf02s20","msl000058","infreq","","","img/green_2bandit_a2.png","70","","68","test","0","","","square","circle","132","127","4","6","0.9212598425196851","","","","","","","","","",""
"null","","2540170","SARL_v6ktf02s20","msl000058","infreq_resp","","","img/green_2bandit_a.png","70","img/green_2bandit_a.png","68","test","","","","","","","","","6","","","","","","","","","","",""
"null","","2540326","SARL_v6ktf02s20","msl000058","fixation","","","img/fixation.png","null","","","test","","","","","","","","","","","","","","","","","","","",""
"401","","2540732","SARL_v6ktf02s20","msl000058","freq","","","img/orange_2bandit_a2.png","70","","70","test","1","","","square","circle","133","128","5","6","0.921875","","","","","","","","","",""
"null","","2541138","SARL_v6ktf02s20","msl000058","freq_resp","","","img/orange_2bandit_a.png","70","img/orange_2bandit_a.png","70","test","","","","","","","","","6","","","","","","","","","","",""
"null","","2541292","SARL_v6ktf02s20","msl000058","fixation","","","img/fixation.png","null","","","test","","","","","","","","","","","","","","","","","","","",""
"274","","2541571","SARL_v6ktf02s20","msl000058","freq","","","img/orange_2bandit_a2.png","70","","70","test","1","","","square","circle","134","129","6","6","0.9224806201550387","","","","","","","","","",""
"null","","2542104","SARL_v6ktf02s20","msl000058","freq_resp","","","img/orange_2bandit_a.png","70","img/orange_2bandit_a.png","70","test","","","","","","","","","6","","","","","","","","","","",""
"null","","2542259","SARL_v6ktf02s20","msl000058","fixation","","","img/fixation.png","null","","","test","","","","","","","","","","","","","","","","","","","",""
"229","","2542494","SARL_v6ktf02s20","msl000058","freq","","","img/orange_2bandit_a2.png","70","","70","test","1","","","square","circle","135","130","7","6","0.9230769230769231","","","","","","","","","",""
"null","","2543071","SARL_v6ktf02s20","msl000058","freq_resp","","","img/orange_2bandit_a.png","70","img/orange_2bandit_a.png","70","test","","","","","","","","","6","","","","","","","","","","",""
"null","","2543226","SARL_v6ktf02s20","msl000058","fixation","","","img/fixation.png","null","","","test","","","","","","","","","","","","","","","","","","","",""
"282","","2543512","SARL_v6ktf02s20","msl000058","freq","","","img/orange_2bandit_a2.png","70","","70","test","1","","","square","circle","136","131","8","6","0.9236641221374046","","","","","","","","","",""
"null","","2544035","SARL_v6ktf02s20","msl000058","freq_resp","","","img/orange_2bandit_a.png","70","img/orange_2bandit_a.png","70","test","","","","","","","","","6","","","","","","","","","","",""
"null","","2544191","SARL_v6ktf02s20","msl000058","fixation","","","img/fixation.png","null","","","test","","","","","","","","","","","","","","","","","","","",""
"289","","2544485","SARL_v6ktf02s20","msl000058","freq","","","img/orange_2bandit_a2.png","70","","70","test","1","","","square","circle","137","132","9","6","0.9242424242424242","","","","","","","","","",""
"null","","2545002","SARL_v6ktf02s20","msl000058","freq_resp","","","img/orange_2bandit_a.png","70","img/orange_2bandit_a.png","70","test","","","","","","","","","6","","","","","","","","","","",""
"null","","2545157","SARL_v6ktf02s20","msl000058","fixation","","","img/fixation.png","null","","","test","","","","","","","","","","","","","","","","","","","",""
"32","","2545194","SARL_v6ktf02s20","msl000058","infreq","","","img/green_2bandit_a2.png","70","","68","test","0","","","square","circle","138","133","10","6","0.9172932330827067","","","","","","","","","",""
"null","","2545969","SARL_v6ktf02s20","msl000058","infreq_resp","","","img/green_2bandit_a.png","70","img/green_2bandit_a.png","68","test","","","","","","","","","6","","","","","","","","","","",""
"null","","2546123","SARL_v6ktf02s20","msl000058","fixation","","","img/fixation.png","null","","","test","","","","","","","","","","","","","","","","","","","",""
"441","","2546569","SARL_v6ktf02s20","msl000058","freq","","","img/orange_2bandit_a2.png","70","","70","test","1","","","square","circle","139","134","11","6","0.917910447761194","","","","","","","","","",""
"null","","2546933","SARL_v6ktf02s20","msl000058","freq_resp","","","img/orange_2bandit_a.png","70","img/orange_2bandit_a.png","70","test","","","","","","","","","6","","","","","","","","","","",""
"null","","2547089","SARL_v6ktf02s20","msl000058","fixation","","","img/fixation.png","null","","","test","","","","","","","","","","","","","","","","","","","",""
"373","","2547466","SARL_v6ktf02s20","msl000058","freq","","","img/orange_2bandit_a2.png","70","","70","test","1","","","square","circle","140","135","12","6","0.9185185185185185","","","","","","","","","",""
"null","","2547899","SARL_v6ktf02s20","msl000058","freq_resp","","","img/orange_2bandit_a.png","70","img/orange_2bandit_a.png","70","test","","","","","","","","","6","","","","","","","","","","",""
"null","","2548054","SARL_v6ktf02s20","msl000058","fixation","","","img/fixation.png","null","","","test","","","","","","","","","","","","","","","","","","","",""
"150","","2548210","SARL_v6ktf02s20","msl000058","freq","","","img/orange_2bandit_a2.png","70","","70","test","1","","","square","circle","141","136","13","6","0.9191176470588235","","","","","","","","","",""
"null","","2548867","SARL_v6ktf02s20","msl000058","freq_resp","","","img/orange_2bandit_a.png","70","img/orange_2bandit_a.png","70","test","","","","","","","","","6","","","","","","","","","","",""
"null","","2549022","SARL_v6ktf02s20","msl000058","fixation","","","img/fixation.png","null","","","test","","","","","","","","","","","","","","","","","","","",""
"146","","2549172","SARL_v6ktf02s20","msl000058","freq","","","img/orange_2bandit_a2.png","70","","70","test","1","","","square","circle","142","137","14","6","0.9197080291970803","","","","","","","","","",""
"null","","2549832","SARL_v6ktf02s20","msl000058","freq_resp","","","img/orange_2bandit_a.png","70","img/orange_2bandit_a.png","70","test","","","","","","","","","6","","","","","","","","","","",""
"null","","2549988","SARL_v6ktf02s20","msl000058","fixation","","","img/fixation.png","null","","","test","","","","","","","","","","","","","","","","","","","",""
"308","","2550301","SARL_v6ktf02s20","msl000058","freq","","","img/orange_2bandit_a2.png","70","","70","test","1","","","square","circle","143","138","15","6","0.9202898550724637","","","","","","","","","",""
"null","","2550800","SARL_v6ktf02s20","msl000058","freq_resp","","","img/orange_2bandit_a.png","70","img/orange_2bandit_a.png","70","test","","","","","","","","","6","","","","","","","","","","",""
"null","","2550955","SARL_v6ktf02s20","msl000058","fixation","","","img/fixation.png","null","","","test","","","","","","","","","","","","","","","","","","","",""
"281","","2551241","SARL_v6ktf02s20","msl000058","freq","","","img/orange_2bandit_a2.png","70","","70","test","1","","","square","circle","144","139","16","6","0.920863309352518","","","","","","","","","",""
"null","","2551766","SARL_v6ktf02s20","msl000058","freq_resp","","","img/orange_2bandit_a.png","70","img/orange_2bandit_a.png","70","test","","","","","","","","","6","","","","","","","","","","",""
"null","","2551922","SARL_v6ktf02s20","msl000058","fixation","","","img/fixation.png","null","","","test","","","","","","","","","","","","","","","","","","","",""
"155","","2552083","SARL_v6ktf02s20","msl000058","freq","","","img/orange_2bandit_a2.png","70","","70","test","1","","","square","circle","145","140","17","6","0.9214285714285714","","","","","","","","","",""
"null","","2552733","SARL_v6ktf02s20","msl000058","freq_resp","","","img/orange_2bandit_a.png","70","img/orange_2bandit_a.png","70","test","","","","","","","","","6","","","","","","","","","","",""
"null","","2552889","SARL_v6ktf02s20","msl000058","fixation","","","img/fixation.png","null","","","test","","","","","","","","","","","","","","","","","","","",""
"275","","2553170","SARL_v6ktf02s20","msl000058","freq","","","img/orange_2bandit_a2.png","70","","70","test","1","","","square","circle","146","141","18","6","0.9219858156028369","","","","","","","","","",""
"null","","2553701","SARL_v6ktf02s20","msl000058","freq_resp","","","img/orange_2bandit_a.png","70","img/orange_2bandit_a.png","70","test","","","","","","","","","6","","","","","","","","","","",""
"null","","2553856","SARL_v6ktf02s20","msl000058","fixation","","","img/fixation.png","null","","","test","","","","","","","","","","","","","","","","","","","",""
"88","","2553951","SARL_v6ktf02s20","msl000058","freq","","","img/orange_2bandit_a2.png","70","","70","test","1","","","square","circle","147","142","19","6","0.9225352112676056","","","","","","","","","",""
