"rt","responses","time_elapsed","subject","demoID","trialType","rlType","attType","stimulus","key_press","stim","corrresp","phase","corr","pracCounter","reward","bandOne","bandTwo","trialNum","attentionNum","attentionRunNum","blockNum","performance","bandChosen","circleVal","squareVal","coin","bandOneVal","bandTwoVal","pReward","shapeChosen","rlNum","badFlag"
"1407777","{""Q0"":""msl000060""}","1408264","SARL_v6kya2dxyh","msl000060","","","","","","","","","","","","","","","","","","","","","","","","","","","",""
"6528","","1414799","SARL_v6kya2dxyh","msl000060","","","","","","","","","","","","","","","","","","","","","","","","","","","",""
"","","1416970","SARL_v6kya2dxyh","msl000060","fullscreen","fullscreen","fullscreen","","","","","","","","","","","","","","","","","","","","","","","","",""
"93498","","1510472","SARL_v6kya2dxyh","msl000060","","","","","","","","","","","","","","","","","","","","","","","","","","","",""
"null","","1511280","SARL_v6kya2dxyh","msl000060","freqPrac","","","img/green_2bandit_b2.png","null","img/green_2bandit_b2.png","70","prac","0","1","","","","","","","","","","","","","","","","","",""
"null","","1512287","SARL_v6kya2dxyh","msl000060","feedback","","","img/tooSlow.png","null","","na","prac","","","","","","","","","","","","","","","","","","","",""
"null","","1512442","SARL_v6kya2dxyh","msl000060","fixation","","","img/fixation.png","null","","","prac","","","","","","","","","","","","","","","","","","","",""
"null","","1513247","SARL_v6kya2dxyh","msl000060","infreqPrac","","","img/orange_2bandit_b2.png","null","img/orange_2bandit_b2.png","68","prac","0","2","","","","","","","","","","","","","","","","","",""
"null","","1514254","SARL_v6kya2dxyh","msl000060","feedback","","","img/tooSlow.png","null","","na","prac","","","","","","","","","","","","","","","","","","","",""
"null","","1514409","SARL_v6kya2dxyh","msl000060","fixation","","","img/fixation.png","null","","","prac","","","","","","","","","","","","","","","","","","","",""
"468","","1514882","SARL_v6kya2dxyh","msl000060","freqPrac","","","img/green_2bandit_b2.png","70","img/green_2bandit_b2.png","70","prac","1","2","","","","","","","","","","","","","","","","","",""
"468","","1515219","SARL_v6kya2dxyh","msl000060","freqPrac_resp","","","img/green_2bandit_b.png","70","img/green_2bandit_b.png","70","prac","","","","","","","","","","","","","","","","","","","",""
"null","","1515374","SARL_v6kya2dxyh","msl000060","fixation","","","img/fixation.png","null","","","prac","","","","","","","","","","","","","","","","","","","",""
"422","","1515801","SARL_v6kya2dxyh","msl000060","infreqPrac","","","img/orange_2bandit_b2.png","68","img/orange_2bandit_b2.png","68","prac","1","2","","","","","","","","","","","","","","","","","",""
"422","","1516185","SARL_v6kya2dxyh","msl000060","infreqPrac_resp","","","img/orange_2bandit_b.png","68","img/orange_2bandit_b.png","68","prac","","","","","","","","","","","","","","","","","","","",""
"null","","1516342","SARL_v6kya2dxyh","msl000060","fixation","","","img/fixation.png","null","","","prac","","","","","","","","","","","","","","","","","","","",""
"65","","1516411","SARL_v6kya2dxyh","msl000060","infreqPrac","","","img/orange_2bandit_b2.png","68","img/orange_2bandit_b2.png","68","prac","1","2","","","","","","","","","","","","","","","","","",""
"65","","1517152","SARL_v6kya2dxyh","msl000060","infreqPrac_resp","","","img/orange_2bandit_b.png","68","img/orange_2bandit_b.png","68","prac","","","","","","","","","","","","","","","","","","","",""
"null","","1517307","SARL_v6kya2dxyh","msl000060","fixation","","","img/fixation.png","null","","","prac","","","","","","","","","","","","","","","","","","","",""
"284","","1517596","SARL_v6kya2dxyh","msl000060","infreqPrac","","","img/orange_2bandit_b2.png","68","img/orange_2bandit_b2.png","68","prac","1","2","","","","","","","","","","","","","","","","","",""
"284","","1518116","SARL_v6kya2dxyh","msl000060","infreqPrac_resp","","","img/orange_2bandit_b.png","68","img/orange_2bandit_b.png","68","prac","","","","","","","","","","","","","","","","","","","",""
"null","","1518272","SARL_v6kya2dxyh","msl000060","fixation","","","img/fixation.png","null","","","prac","","","","","","","","","","","","","","","","","","","",""
"459","","1518735","SARL_v6kya2dxyh","msl000060","freqPrac","","","img/green_2bandit_b2.png","70","img/green_2bandit_b2.png","70","prac","1","2","","","","","","","","","","","","","","","","","",""
"459","","1519082","SARL_v6kya2dxyh","msl000060","freqPrac_resp","","","img/green_2bandit_b.png","70","img/green_2bandit_b.png","70","prac","","","","","","","","","","","","","","","","","","","",""
"null","","1519237","SARL_v6kya2dxyh","msl000060","fixation","","","img/fixation.png","null","","","prac","","","","","","","","","","","","","","","","","","","",""
"467","","1519710","SARL_v6kya2dxyh","msl000060","infreqPrac","","","img/orange_2bandit_b2.png","68","img/orange_2bandit_b2.png","68","prac","1","2","","","","","","","","","","","","","","","","","",""
"467","","1520048","SARL_v6kya2dxyh","msl000060","infreqPrac_resp","","","img/orange_2bandit_b.png","68","img/orange_2bandit_b.png","68","prac","","","","","","","","","","","","","","","","","","","",""
"null","","1520204","SARL_v6kya2dxyh","msl000060","fixation","","","img/fixation.png","null","","","prac","","","","","","","","","","","","","","","","","","","",""
"457","","1520666","SARL_v6kya2dxyh","msl000060","freqPrac","","","img/green_2bandit_b2.png","70","img/green_2bandit_b2.png","70","prac","1","2","","","","","","","","","","","","","","","","","",""
"457","","1521016","SARL_v6kya2dxyh","msl000060","freqPrac_resp","","","img/green_2bandit_b.png","70","img/green_2bandit_b.png","70","prac","","","","","","","","","","","","","","","","","","","",""
"null","","1521172","SARL_v6kya2dxyh","msl000060","fixation","","","img/fixation.png","null","","","prac","","","","","","","","","","","","","","","","","","","",""
"686","","1521861","SARL_v6kya2dxyh","msl000060","freqPrac","","","img/green_2bandit_b2.png","70","img/green_2bandit_b2.png","70","prac","1","2","","","","","","","","","","","","","","","","","",""
"686","","1521980","SARL_v6kya2dxyh","msl000060","freqPrac_resp","","","img/green_2bandit_b.png","70","img/green_2bandit_b.png","70","prac","","","","","","","","","","","","","","","","","","","",""
"null","","1522136","SARL_v6kya2dxyh","msl000060","fixation","","","img/fixation.png","null","","","prac","","","","","","","","","","","","","","","","","","","",""
"30145","","1552285","SARL_v6kya2dxyh","msl000060","","","","","","","","prac","","","","","","","","","","","","","","","","","","","",""
"1040","","1553331","SARL_v6kya2dxyh","msl000060","rlPractice","","","img/black_2bandit_b2.png","75","img/black_2bandit_b2.png","","prac","","","75","","","","","","","","","","","","","","","","",""
"null","","1554086","SARL_v6kya2dxyh","msl000060","feedback","","","img/yay_R_b.png","null","","na","prac","","","","","","","","","","","","","","","","","","","",""
"null","","1554242","SARL_v6kya2dxyh","msl000060","fixation","","","img/fixation.png","null","","","prac","","","","","","","","","","","","","","","","","","","",""
"588","","1554835","SARL_v6kya2dxyh","msl000060","rlPractice","","","img/black_2bandit_b2.png","75","img/black_2bandit_b2.png","","prac","","","75","","","","","","","","","","","","","","","","",""
"null","","1555590","SARL_v6kya2dxyh","msl000060","feedback","","","img/yay_R_b.png","null","","na","prac","","","","","","","","","","","","","","","","","","","",""
"null","","1555745","SARL_v6kya2dxyh","msl000060","fixation","","","img/fixation.png","null","","","prac","","","","","","","","","","","","","","","","","","","",""
"484","","1556234","SARL_v6kya2dxyh","msl000060","rlPractice","","","img/black_2bandit_b2.png","75","img/black_2bandit_b2.png","","prac","","","75","","","","","","","","","","","","","","","","",""
"null","","1556990","SARL_v6kya2dxyh","msl000060","feedback","","","img/yay_R_b.png","null","","na","prac","","","","","","","","","","","","","","","","","","","",""
"null","","1557146","SARL_v6kya2dxyh","msl000060","fixation","","","img/fixation.png","null","","","prac","","","","","","","","","","","","","","","","","","","",""
"379","","1557530","SARL_v6kya2dxyh","msl000060","rlPractice","","","img/black_2bandit_b2.png","74","img/black_2bandit_b2.png","","prac","","","75","","","","","","","","","","","","","","","","",""
"null","","1558286","SARL_v6kya2dxyh","msl000060","feedback","","","img/boo_L_b.png","null","","na","prac","","","","","","","","","","","","","","","","","","","",""
"null","","1558443","SARL_v6kya2dxyh","msl000060","fixation","","","img/fixation.png","null","","","prac","","","","","","","","","","","","","","","","","","","",""
"303","","1558750","SARL_v6kya2dxyh","msl000060","rlPractice","","","img/black_2bandit_b2.png","75","img/black_2bandit_b2.png","","prac","","","75","","","","","","","","","","","","","","","","",""
"null","","1559506","SARL_v6kya2dxyh","msl000060","feedback","","","img/yay_R_b.png","null","","na","prac","","","","","","","","","","","","","","","","","","","",""
"null","","1559663","SARL_v6kya2dxyh","msl000060","fixation","","","img/fixation.png","null","","","prac","","","","","","","","","","","","","","","","","","","",""
"301","","1559969","SARL_v6kya2dxyh","msl000060","rlPractice","","","img/black_2bandit_b2.png","75","img/black_2bandit_b2.png","","prac","","","75","","","","","","","","","","","","","","","","",""
"null","","1560725","SARL_v6kya2dxyh","msl000060","feedback","","","img/yay_R_b.png","null","","na","prac","","","","","","","","","","","","","","","","","","","",""
"null","","1560881","SARL_v6kya2dxyh","msl000060","fixation","","","img/fixation.png","null","","","prac","","","","","","","","","","","","","","","","","","","",""
"396","","1561283","SARL_v6kya2dxyh","msl000060","rlPractice","","","img/black_2bandit_b2.png","75","img/black_2bandit_b2.png","","prac","","","75","","","","","","","","","","","","","","","","",""
"null","","1562039","SARL_v6kya2dxyh","msl000060","feedback","","","img/yay_R_b.png","null","","na","prac","","","","","","","","","","","","","","","","","","","",""
"null","","1562194","SARL_v6kya2dxyh","msl000060","fixation","","","img/fixation.png","null","","","prac","","","","","","","","","","","","","","","","","","","",""
"13436","","1575635","SARL_v6kya2dxyh","msl000060","","","","","","","","prac","","","","","","","","","","","","","","","","","","","",""
"null","","1576441","SARL_v6kya2dxyh","msl000060","mixAttFreqPrac","","","img/green_2bandit_b2.png","null","img/green_2bandit_b2.png","70","prac","","","","","","","","","","","","","","","","","","","",""
"53","","1576596","SARL_v6kya2dxyh","msl000060","fixation","","","img/fixation.png","68","","","prac","","","","","","","","","","","","","","","","","","","",""
"600","","1577202","SARL_v6kya2dxyh","msl000060","mixAttInfreqPrac","","","img/orange_2bandit_b2.png","70","img/orange_2bandit_b2.png","68","prac","","","","","","","","","","","","","","","","","","","",""
"600","","1577406","SARL_v6kya2dxyh","msl000060","infreqPrac_resp","","","img/orange_2bandit_b.png","70","img/green_2bandit_b.png","68","prac","","","","","","","","","","","","","","","","","","","",""
"null","","1577562","SARL_v6kya2dxyh","msl000060","fixation","","","img/fixation.png","null","","","prac","","","","","","","","","","","","","","","","","","","",""
"638","","1578204","SARL_v6kya2dxyh","msl000060","mixAttInfreqPrac","","","img/orange_2bandit_b2.png","68","img/orange_2bandit_b2.png","68","prac","","","","","","","","","","","","","","","","","","","",""
"638","","1578372","SARL_v6kya2dxyh","msl000060","infreqPrac_resp","","","img/orange_2bandit_b.png","68","img/green_2bandit_b.png","68","prac","","","","","","","","","","","","","","","","","","","",""
"null","","1578527","SARL_v6kya2dxyh","msl000060","fixation","","","img/fixation.png","null","","","prac","","","","","","","","","","","","","","","","","","","",""
"410","","1578941","SARL_v6kya2dxyh","msl000060","mixAttInfreqPrac","","","img/orange_2bandit_b2.png","68","img/orange_2bandit_b2.png","68","prac","","","","","","","","","","","","","","","","","","","",""
"410","","1579337","SARL_v6kya2dxyh","msl000060","infreqPrac_resp","","","img/orange_2bandit_b.png","68","img/green_2bandit_b.png","68","prac","","","","","","","","","","","","","","","","","","","",""
"null","","1579492","SARL_v6kya2dxyh","msl000060","fixation","","","img/fixation.png","null","","","prac","","","","","","","","","","","","","","","","","","","",""
"500","","1579996","SARL_v6kya2dxyh","msl000060","mixAttFreqPrac","","","img/green_2bandit_b2.png","70","img/green_2bandit_b2.png","70","prac","","","","","","","","","","","","","","","","","","","",""
"500","","1580302","SARL_v6kya2dxyh","msl000060","freqPrac_resp","","","img/green_2bandit_b.png","70","img/green_2bandit_b.png","70","prac","","","","","","","","","","","","","","","","","","","",""
"null","","1580458","SARL_v6kya2dxyh","msl000060","fixation","","","img/fixation.png","null","","","prac","","","","","","","","","","","","","","","","","","","",""
"904","","1581368","SARL_v6kya2dxyh","msl000060","mixRLPractice","","","img/black_2bandit_b2.png","75","img/black_2bandit_b2.png","","prac","","","","","","","","","","","","","","","","","","","",""
"null","","1582123","SARL_v6kya2dxyh","msl000060","feedback","","","img/boo_R_b.png","null","","na","prac","","","","","","","","","","","","","","","","","","","",""
"null","","1582928","SARL_v6kya2dxyh","msl000060","mixAttFreqPrac","","","img/green_2bandit_b2.png","null","img/green_2bandit_b2.png","70","prac","","","","","","","","","","","","","","","","","","","",""
"104","","1583083","SARL_v6kya2dxyh","msl000060","fixation","","","img/fixation.png","68","","","prac","","","","","","","","","","","","","","","","","","","",""
"null","","1583890","SARL_v6kya2dxyh","msl000060","mixAttInfreqPrac","","","img/orange_2bandit_b2.png","null","img/orange_2bandit_b2.png","68","prac","","","","","","","","","","","","","","","","","","","",""
"36","","1584046","SARL_v6kya2dxyh","msl000060","fixation","","","img/fixation.png","68","","","prac","","","","","","","","","","","","","","","","","","","",""
"653","","1584704","SARL_v6kya2dxyh","msl000060","mixAttFreqPrac","","","img/green_2bandit_b2.png","70","img/green_2bandit_b2.png","70","prac","","","","","","","","","","","","","","","","","","","",""
"653","","1584856","SARL_v6kya2dxyh","msl000060","freqPrac_resp","","","img/green_2bandit_b.png","70","img/green_2bandit_b.png","70","prac","","","","","","","","","","","","","","","","","","","",""
"null","","1585011","SARL_v6kya2dxyh","msl000060","fixation","","","img/fixation.png","null","","","prac","","","","","","","","","","","","","","","","","","","",""
"505","","1585520","SARL_v6kya2dxyh","msl000060","mixAttFreqPrac","","","img/green_2bandit_b2.png","70","img/green_2bandit_b2.png","70","prac","","","","","","","","","","","","","","","","","","","",""
"505","","1585821","SARL_v6kya2dxyh","msl000060","freqPrac_resp","","","img/green_2bandit_b.png","70","img/green_2bandit_b.png","70","prac","","","","","","","","","","","","","","","","","","","",""
"null","","1585975","SARL_v6kya2dxyh","msl000060","fixation","","","img/fixation.png","null","","","prac","","","","","","","","","","","","","","","","","","","",""
"544","","1586524","SARL_v6kya2dxyh","msl000060","mixAttInfreqPrac","","","img/orange_2bandit_b2.png","68","img/orange_2bandit_b2.png","68","prac","","","","","","","","","","","","","","","","","","","",""
"544","","1586786","SARL_v6kya2dxyh","msl000060","infreqPrac_resp","","","img/orange_2bandit_b.png","68","img/green_2bandit_b.png","68","prac","","","","","","","","","","","","","","","","","","","",""
"null","","1586941","SARL_v6kya2dxyh","msl000060","fixation","","","img/fixation.png","null","","","prac","","","","","","","","","","","","","","","","","","","",""
"753","","1587698","SARL_v6kya2dxyh","msl000060","mixRLPractice","","","img/black_2bandit_b2.png","74","img/black_2bandit_b2.png","","prac","","","","","","","","","","","","","","","","","","","",""
"null","","1588454","SARL_v6kya2dxyh","msl000060","feedback","","","img/boo_L_b.png","null","","na","prac","","","","","","","","","","","","","","","","","","","",""
"35364","","1623822","SARL_v6kya2dxyh","msl000060","","","","","","","","prac","","","","","","","","","","","","","","","","","","","",""
"null","","1624628","SARL_v6kya2dxyh","msl000060","freq","","","img/green_2bandit_b2.png","null","","70","test","0","","","circle","square","1","1","1","1","0","","","","","","","","","",""
"null","","1624785","SARL_v6kya2dxyh","msl000060","fixation","","","img/fixation.png","null","","","test","","","","","","","","","","","","","","","","","","","",""
"669","","1625458","SARL_v6kya2dxyh","msl000060","freq","","","img/green_2bandit_b2.png","70","","70","test","1","","","circle","square","2","2","2","1","0.5","","","","","","","","","",""
"null","","1625595","SARL_v6kya2dxyh","msl000060","freq_resp","","","img/green_2bandit_b.png","70","img/green_2bandit_b.png","70","test","","","","","","","","","1","","","","","","","","","","",""
"null","","1625751","SARL_v6kya2dxyh","msl000060","fixation","","","img/fixation.png","null","","","test","","","","","","","","","","","","","","","","","","","",""
"506","","1626261","SARL_v6kya2dxyh","msl000060","freq","","","img/green_2bandit_b2.png","70","","70","test","1","","","circle","square","3","3","3","1","0.6666666666666666","","","","","","","","","",""
"null","","1626561","SARL_v6kya2dxyh","msl000060","freq_resp","","","img/green_2bandit_b.png","70","img/green_2bandit_b.png","70","test","","","","","","","","","1","","","","","","","","","","",""
"null","","1626715","SARL_v6kya2dxyh","msl000060","fixation","","","img/fixation.png","null","","","test","","","","","","","","","","","","","","","","","","","",""
"486","","1627205","SARL_v6kya2dxyh","msl000060","freq","","","img/green_2bandit_b2.png","70","","70","test","1","","","circle","square","4","4","4","1","0.75","","","","","","","","","",""
"null","","1627525","SARL_v6kya2dxyh","msl000060","freq_resp","","","img/green_2bandit_b.png","70","img/green_2bandit_b.png","70","test","","","","","","","","","1","","","","","","","","","","",""
"null","","1627680","SARL_v6kya2dxyh","msl000060","fixation","","","img/fixation.png","null","","","test","","","","","","","","","","","","","","","","","","","",""
"442","","1628128","SARL_v6kya2dxyh","msl000060","freq","","","img/green_2bandit_b2.png","70","","70","test","1","","","circle","square","5","5","5","1","0.8","","","","","","","","","",""
"null","","1628491","SARL_v6kya2dxyh","msl000060","freq_resp","","","img/green_2bandit_b.png","70","img/green_2bandit_b.png","70","test","","","","","","","","","1","","","","","","","","","","",""
"null","","1628646","SARL_v6kya2dxyh","msl000060","fixation","","","img/fixation.png","null","","","test","","","","","","","","","","","","","","","","","","","",""
"507","","1629158","SARL_v6kya2dxyh","msl000060","freq","","","img/green_2bandit_b2.png","70","","70","test","1","","","circle","square","6","6","6","1","0.8333333333333334","","","","","","","","","",""
"null","","1629458","SARL_v6kya2dxyh","msl000060","freq_resp","","","img/green_2bandit_b.png","70","img/green_2bandit_b.png","70","test","","","","","","","","","1","","","","","","","","","","",""
"null","","1629614","SARL_v6kya2dxyh","msl000060","fixation","","","img/fixation.png","null","","","test","","","","","","","","","","","","","","","","","","","",""
"491","","1630110","SARL_v6kya2dxyh","msl000060","freq","","","img/green_2bandit_b2.png","70","","70","test","1","","","circle","square","7","7","7","1","0.8571428571428571","","","","","","","","","",""
"null","","1630424","SARL_v6kya2dxyh","msl000060","freq_resp","","","img/green_2bandit_b.png","70","img/green_2bandit_b.png","70","test","","","","","","","","","1","","","","","","","","","","",""
"null","","1630581","SARL_v6kya2dxyh","msl000060","fixation","","","img/fixation.png","null","","","test","","","","","","","","","","","","","","","","","","","",""
"460","","1631044","SARL_v6kya2dxyh","msl000060","freq","","","img/green_2bandit_b2.png","70","","70","test","1","","","circle","square","8","8","8","1","0.875","","","","","","","","","",""
"null","","1631391","SARL_v6kya2dxyh","msl000060","freq_resp","","","img/green_2bandit_b.png","70","img/green_2bandit_b.png","70","test","","","","","","","","","1","","","","","","","","","","",""
"null","","1631546","SARL_v6kya2dxyh","msl000060","fixation","","","img/fixation.png","null","","","test","","","","","","","","","","","","","","","","","","","",""
"432","","1631981","SARL_v6kya2dxyh","msl000060","freq","","","img/green_2bandit_b2.png","70","","70","test","1","","","circle","square","9","9","9","1","0.8888888888888888","","","","","","","","","",""
"null","","1632355","SARL_v6kya2dxyh","msl000060","freq_resp","","","img/green_2bandit_b.png","70","img/green_2bandit_b.png","70","test","","","","","","","","","1","","","","","","","","","","",""
"null","","1632512","SARL_v6kya2dxyh","msl000060","fixation","","","img/fixation.png","null","","","test","","","","","","","","","","","","","","","","","","","",""
"430","","1632946","SARL_v6kya2dxyh","msl000060","infreq","","","img/orange_2bandit_b2.png","68","","68","test","1","","","circle","square","10","10","10","1","0.9","","","","","","","","","",""
"null","","1633322","SARL_v6kya2dxyh","msl000060","infreq_resp","","","img/orange_2bandit_b.png","68","img/orange_2bandit_b.png","68","test","","","","","","","","","1","","","","","","","","","","",""
"null","","1633479","SARL_v6kya2dxyh","msl000060","fixation","","","img/fixation.png","null","","","test","","","","","","","","","","","","","","","","","","","",""
"464","","1633948","SARL_v6kya2dxyh","msl000060","freq","","","img/green_2bandit_b2.png","70","","70","test","1","","","circle","square","11","11","11","1","0.9090909090909091","","","","","","","","","",""
"null","","1634291","SARL_v6kya2dxyh","msl000060","freq_resp","","","img/green_2bandit_b.png","70","img/green_2bandit_b.png","70","test","","","","","","","","","1","","","","","","","","","","",""
"null","","1634445","SARL_v6kya2dxyh","msl000060","fixation","","","img/fixation.png","null","","","test","","","","","","","","","","","","","","","","","","","",""
"378","","1634828","SARL_v6kya2dxyh","msl000060","freq","","","img/green_2bandit_b2.png","70","","70","test","1","","","circle","square","12","12","12","1","0.9166666666666666","","","","","","","","","",""
"null","","1635255","SARL_v6kya2dxyh","msl000060","freq_resp","","","img/green_2bandit_b.png","70","img/green_2bandit_b.png","70","test","","","","","","","","","1","","","","","","","","","","",""
"null","","1635410","SARL_v6kya2dxyh","msl000060","fixation","","","img/fixation.png","null","","","test","","","","","","","","","","","","","","","","","","","",""
"380","","1635795","SARL_v6kya2dxyh","msl000060","freq","","","img/green_2bandit_b2.png","70","","70","test","1","","","circle","square","13","13","13","1","0.9230769230769231","","","","","","","","","",""
"null","","1636220","SARL_v6kya2dxyh","msl000060","freq_resp","","","img/green_2bandit_b.png","70","img/green_2bandit_b.png","70","test","","","","","","","","","1","","","","","","","","","","",""
"null","","1636376","SARL_v6kya2dxyh","msl000060","fixation","","","img/fixation.png","null","","","test","","","","","","","","","","","","","","","","","","","",""
"334","","1636715","SARL_v6kya2dxyh","msl000060","freq","","","img/green_2bandit_b2.png","70","","70","test","1","","","circle","square","14","14","14","1","0.9285714285714286","","","","","","","","","",""
"null","","1637186","SARL_v6kya2dxyh","msl000060","freq_resp","","","img/green_2bandit_b.png","70","img/green_2bandit_b.png","70","test","","","","","","","","","1","","","","","","","","","","",""
"null","","1637343","SARL_v6kya2dxyh","msl000060","fixation","","","img/fixation.png","null","","","test","","","","","","","","","","","","","","","","","","","",""
"369","","1637718","SARL_v6kya2dxyh","msl000060","freq","","","img/green_2bandit_b2.png","70","","70","test","1","","","circle","square","15","15","15","1","0.9333333333333333","","","","","","","","","",""
"null","","1638155","SARL_v6kya2dxyh","msl000060","freq_resp","","","img/green_2bandit_b.png","70","img/green_2bandit_b.png","70","test","","","","","","","","","1","","","","","","","","","","",""
"null","","1638310","SARL_v6kya2dxyh","msl000060","fixation","","","img/fixation.png","null","","","test","","","","","","","","","","","","","","","","","","","",""
"346","","1638661","SARL_v6kya2dxyh","msl000060","freq","","","img/green_2bandit_b2.png","70","","70","test","1","","","circle","square","16","16","16","1","0.9375","","","","","","","","","",""
"null","","1639123","SARL_v6kya2dxyh","msl000060","freq_resp","","","img/green_2bandit_b.png","70","img/green_2bandit_b.png","70","test","","","","","","","","","1","","","","","","","","","","",""
"null","","1639278","SARL_v6kya2dxyh","msl000060","fixation","","","img/fixation.png","null","","","test","","","","","","","","","","","","","","","","","","","",""
"293","","1639575","SARL_v6kya2dxyh","msl000060","freq","","","img/green_2bandit_b2.png","70","","70","test","1","","","circle","square","17","17","17","1","0.9411764705882353","","","","","","","","","",""
"null","","1640087","SARL_v6kya2dxyh","msl000060","freq_resp","","","img/green_2bandit_b.png","70","img/green_2bandit_b.png","70","test","","","","","","","","","1","","","","","","","","","","",""
"null","","1640243","SARL_v6kya2dxyh","msl000060","fixation","","","img/fixation.png","null","","","test","","","","","","","","","","","","","","","","","","","",""
"290","","1640537","SARL_v6kya2dxyh","msl000060","freq","","","img/green_2bandit_b2.png","70","","70","test","1","","","circle","square","18","18","18","1","0.9444444444444444","","","","","","","","","",""
"null","","1641052","SARL_v6kya2dxyh","msl000060","freq_resp","","","img/green_2bandit_b.png","70","img/green_2bandit_b.png","70","test","","","","","","","","","1","","","","","","","","","","",""
"null","","1641207","SARL_v6kya2dxyh","msl000060","fixation","","","img/fixation.png","null","","","test","","","","","","","","","","","","","","","","","","","",""
"480","","1641692","SARL_v6kya2dxyh","msl000060","infreq","","","img/orange_2bandit_b2.png","68","","68","test","1","","","circle","square","19","19","19","1","0.9473684210526315","","","","","","","","","",""
"null","","1642018","SARL_v6kya2dxyh","msl000060","infreq_resp","","","img/orange_2bandit_b.png","68","img/orange_2bandit_b.png","68","test","","","","","","","","","1","","","","","","","","","","",""
"null","","1642173","SARL_v6kya2dxyh","msl000060","fixation","","","img/fixation.png","null","","","test","","","","","","","","","","","","","","","","","","","",""
"386","","1642563","SARL_v6kya2dxyh","msl000060","freq","","","img/green_2bandit_b2.png","70","","70","test","1","","","circle","square","20","20","20","1","0.95","","","","","","","","","",""
"null","","1642983","SARL_v6kya2dxyh","msl000060","freq_resp","","","img/green_2bandit_b.png","70","img/green_2bandit_b.png","70","test","","","","","","","","","1","","","","","","","","","","",""
"null","","1643139","SARL_v6kya2dxyh","msl000060","fixation","","","img/fixation.png","null","","","test","","","","","","","","","","","","","","","","","","","",""
"349","","1643493","SARL_v6kya2dxyh","msl000060","freq","","","img/green_2bandit_b2.png","70","","70","test","1","","","circle","square","21","21","21","1","0.9523809523809523","","","","","","","","","",""
"null","","1643949","SARL_v6kya2dxyh","msl000060","freq_resp","","","img/green_2bandit_b.png","70","img/green_2bandit_b.png","70","test","","","","","","","","","1","","","","","","","","","","",""
"null","","1644105","SARL_v6kya2dxyh","msl000060","fixation","","","img/fixation.png","null","","","test","","","","","","","","","","","","","","","","","","","",""
"326","","1644436","SARL_v6kya2dxyh","msl000060","freq","","","img/green_2bandit_b2.png","70","","70","test","1","","","circle","square","22","22","22","1","0.9545454545454546","","","","","","","","","",""
"null","","1644916","SARL_v6kya2dxyh","msl000060","freq_resp","","","img/green_2bandit_b.png","70","img/green_2bandit_b.png","70","test","","","","","","","","","1","","","","","","","","","","",""
"null","","1645071","SARL_v6kya2dxyh","msl000060","fixation","","","img/fixation.png","null","","","test","","","","","","","","","","","","","","","","","","","",""
"298","","1645374","SARL_v6kya2dxyh","msl000060","freq","","","img/green_2bandit_b2.png","70","","70","test","1","","","circle","square","23","23","23","1","0.9565217391304348","","","","","","","","","",""
"null","","1645882","SARL_v6kya2dxyh","msl000060","freq_resp","","","img/green_2bandit_b.png","70","img/green_2bandit_b.png","70","test","","","","","","","","","1","","","","","","","","","","",""
"null","","1646038","SARL_v6kya2dxyh","msl000060","fixation","","","img/fixation.png","null","","","test","","","","","","","","","","","","","","","","","","","",""
"755","","1646797","SARL_v6kya2dxyh","msl000060","rl","","","img/black_2bandit_b2.png","74","","0","test","","","0","circle","square","24","","0","1","","74","0.2","0.8","0.5378063285210818","0.2","0.8","0.2","circle","1","0"
"null","","1647553","SARL_v6kya2dxyh","msl000060","feedback","","","img/boo_L_b.png","null","","na","test","","","","","","","","","1","","74","0.2","0.8","","","","0.2","","1",""
"null","","1648359","SARL_v6kya2dxyh","msl000060","freq","","","img/green_2bandit_b2.png","null","","70","test","0","","","circle","square","25","24","1","2","0.9166666666666666","","","","","","","","","",""
"null","","1648514","SARL_v6kya2dxyh","msl000060","fixation","","","img/fixation.png","null","","","test","","","","","","","","","","","","","","","","","","","",""
"740","","1649259","SARL_v6kya2dxyh","msl000060","freq","","","img/green_2bandit_b2.png","70","","70","test","1","","","circle","square","26","25","2","2","0.92","","","","","","","","","",""
"null","","1649326","SARL_v6kya2dxyh","msl000060","freq_resp","","","img/green_2bandit_b.png","70","img/green_2bandit_b.png","70","test","","","","","","","","","2","","","","","","","","","","",""
"null","","1649483","SARL_v6kya2dxyh","msl000060","fixation","","","img/fixation.png","null","","","test","","","","","","","","","","","","","","","","","","","",""
"756","","1650243","SARL_v6kya2dxyh","msl000060","freq","","","img/green_2bandit_b2.png","70","","70","test","1","","","circle","square","27","26","3","2","0.9230769230769231","","","","","","","","","",""
"null","","1650293","SARL_v6kya2dxyh","msl000060","freq_resp","","","img/green_2bandit_b.png","70","img/green_2bandit_b.png","70","test","","","","","","","","","2","","","","","","","","","","",""
"null","","1650450","SARL_v6kya2dxyh","msl000060","fixation","","","img/fixation.png","null","","","test","","","","","","","","","","","","","","","","","","","",""
"641","","1651095","SARL_v6kya2dxyh","msl000060","freq","","","img/green_2bandit_b2.png","70","","70","test","1","","","circle","square","28","27","4","2","0.9259259259259259","","","","","","","","","",""
"null","","1651260","SARL_v6kya2dxyh","msl000060","freq_resp","","","img/green_2bandit_b.png","70","img/green_2bandit_b.png","70","test","","","","","","","","","2","","","","","","","","","","",""
"null","","1651415","SARL_v6kya2dxyh","msl000060","fixation","","","img/fixation.png","null","","","test","","","","","","","","","","","","","","","","","","","",""
"699","","1652119","SARL_v6kya2dxyh","msl000060","freq","","","img/green_2bandit_b2.png","70","","70","test","1","","","circle","square","29","28","5","2","0.9285714285714286","","","","","","","","","",""
"null","","1652226","SARL_v6kya2dxyh","msl000060","freq_resp","","","img/green_2bandit_b.png","70","img/green_2bandit_b.png","70","test","","","","","","","","","2","","","","","","","","","","",""
"null","","1652381","SARL_v6kya2dxyh","msl000060","fixation","","","img/fixation.png","null","","","test","","","","","","","","","","","","","","","","","","","",""
"726","","1653114","SARL_v6kya2dxyh","msl000060","freq","","","img/green_2bandit_b2.png","70","","70","test","1","","","circle","square","30","29","6","2","0.9310344827586207","","","","","","","","","",""
"null","","1653193","SARL_v6kya2dxyh","msl000060","freq_resp","","","img/green_2bandit_b.png","70","img/green_2bandit_b.png","70","test","","","","","","","","","2","","","","","","","","","","",""
"null","","1653348","SARL_v6kya2dxyh","msl000060","fixation","","","img/fixation.png","null","","","test","","","","","","","","","","","","","","","","","","","",""
"750","","1654104","SARL_v6kya2dxyh","msl000060","freq","","","img/green_2bandit_b2.png","70","","70","test","1","","","circle","square","31","30","7","2","0.9333333333333333","","","","","","","","","",""
"null","","1654159","SARL_v6kya2dxyh","msl000060","freq_resp","","","img/green_2bandit_b.png","70","img/green_2bandit_b.png","70","test","","","","","","","","","2","","","","","","","","","","",""
"null","","1654314","SARL_v6kya2dxyh","msl000060","fixation","","","img/fixation.png","null","","","test","","","","","","","","","","","","","","","","","","","",""
"548","","1654868","SARL_v6kya2dxyh","msl000060","infreq","","","img/orange_2bandit_b2.png","68","","68","test","1","","","circle","square","32","31","8","2","0.9354838709677419","","","","","","","","","",""
"null","","1655125","SARL_v6kya2dxyh","msl000060","infreq_resp","","","img/orange_2bandit_b.png","68","img/orange_2bandit_b.png","68","test","","","","","","","","","2","","","","","","","","","","",""
"null","","1655281","SARL_v6kya2dxyh","msl000060","fixation","","","img/fixation.png","null","","","test","","","","","","","","","","","","","","","","","","","",""
"382","","1655668","SARL_v6kya2dxyh","msl000060","freq","","","img/green_2bandit_b2.png","70","","70","test","1","","","circle","square","33","32","9","2","0.9375","","","","","","","","","",""
"null","","1656092","SARL_v6kya2dxyh","msl000060","freq_resp","","","img/green_2bandit_b.png","70","img/green_2bandit_b.png","70","test","","","","","","","","","2","","","","","","","","","","",""
"null","","1656248","SARL_v6kya2dxyh","msl000060","fixation","","","img/fixation.png","null","","","test","","","","","","","","","","","","","","","","","","","",""
"397","","1656650","SARL_v6kya2dxyh","msl000060","freq","","","img/green_2bandit_b2.png","70","","70","test","1","","","circle","square","34","33","10","2","0.9393939393939394","","","","","","","","","",""
"null","","1657059","SARL_v6kya2dxyh","msl000060","freq_resp","","","img/green_2bandit_b.png","70","img/green_2bandit_b.png","70","test","","","","","","","","","2","","","","","","","","","","",""
"null","","1657214","SARL_v6kya2dxyh","msl000060","fixation","","","img/fixation.png","null","","","test","","","","","","","","","","","","","","","","","","","",""
"355","","1657573","SARL_v6kya2dxyh","msl000060","freq","","","img/green_2bandit_b2.png","70","","70","test","1","","","circle","square","35","34","11","2","0.9411764705882353","","","","","","","","","",""
"null","","1658024","SARL_v6kya2dxyh","msl000060","freq_resp","","","img/green_2bandit_b.png","70","img/green_2bandit_b.png","70","test","","","","","","","","","2","","","","","","","","","","",""
"null","","1658180","SARL_v6kya2dxyh","msl000060","fixation","","","img/fixation.png","null","","","test","","","","","","","","","","","","","","","","","","","",""
"440","","1658623","SARL_v6kya2dxyh","msl000060","freq","","","img/green_2bandit_b2.png","70","","70","test","1","","","circle","square","36","35","12","2","0.9428571428571428","","","","","","","","","",""
"null","","1658989","SARL_v6kya2dxyh","msl000060","freq_resp","","","img/green_2bandit_b.png","70","img/green_2bandit_b.png","70","test","","","","","","","","","2","","","","","","","","","","",""
"null","","1659146","SARL_v6kya2dxyh","msl000060","fixation","","","img/fixation.png","null","","","test","","","","","","","","","","","","","","","","","","","",""
"707","","1659857","SARL_v6kya2dxyh","msl000060","freq","","","img/green_2bandit_b2.png","70","","70","test","1","","","circle","square","37","36","13","2","0.9444444444444444","","","","","","","","","",""
"null","","1659957","SARL_v6kya2dxyh","msl000060","freq_resp","","","img/green_2bandit_b.png","70","img/green_2bandit_b.png","70","test","","","","","","","","","2","","","","","","","","","","",""
"null","","1660113","SARL_v6kya2dxyh","msl000060","fixation","","","img/fixation.png","null","","","test","","","","","","","","","","","","","","","","","","","",""
"712","","1660831","SARL_v6kya2dxyh","msl000060","freq","","","img/green_2bandit_b2.png","70","","70","test","1","","","circle","square","38","37","14","2","0.9459459459459459","","","","","","","","","",""
"null","","1660925","SARL_v6kya2dxyh","msl000060","freq_resp","","","img/green_2bandit_b.png","70","img/green_2bandit_b.png","70","test","","","","","","","","","2","","","","","","","","","","",""
"null","","1661080","SARL_v6kya2dxyh","msl000060","fixation","","","img/fixation.png","null","","","test","","","","","","","","","","","","","","","","","","","",""
"588","","1661674","SARL_v6kya2dxyh","msl000060","freq","","","img/green_2bandit_b2.png","70","","70","test","1","","","circle","square","39","38","15","2","0.9473684210526315","","","","","","","","","",""
"null","","1661891","SARL_v6kya2dxyh","msl000060","freq_resp","","","img/green_2bandit_b.png","70","img/green_2bandit_b.png","70","test","","","","","","","","","2","","","","","","","","","","",""
"null","","1662048","SARL_v6kya2dxyh","msl000060","fixation","","","img/fixation.png","null","","","test","","","","","","","","","","","","","","","","","","","",""
"null","","1662854","SARL_v6kya2dxyh","msl000060","freq","","","img/green_2bandit_b2.png","null","","70","test","0","","","circle","square","40","39","16","2","0.9230769230769231","","","","","","","","","",""
"null","","1663010","SARL_v6kya2dxyh","msl000060","fixation","","","img/fixation.png","null","","","test","","","","","","","","","","","","","","","","","","","",""
"null","","1663816","SARL_v6kya2dxyh","msl000060","freq","","","img/green_2bandit_b2.png","null","","70","test","0","","","circle","square","41","40","17","2","0.9","","","","","","","","","",""
"null","","1663971","SARL_v6kya2dxyh","msl000060","fixation","","","img/fixation.png","null","","","test","","","","","","","","","","","","","","","","","","","",""
"null","","1664777","SARL_v6kya2dxyh","msl000060","freq","","","img/green_2bandit_b2.png","null","","70","test","0","","","circle","square","42","41","18","2","0.8780487804878049","","","","","","","","","",""
"null","","1664932","SARL_v6kya2dxyh","msl000060","fixation","","","img/fixation.png","null","","","test","","","","","","","","","","","","","","","","","","","",""
"20","","1664957","SARL_v6kya2dxyh","msl000060","freq","","","img/green_2bandit_b2.png","70","","70","test","1","","","circle","square","43","42","19","2","0.8809523809523809","","","","","","","","","",""
"null","","1665743","SARL_v6kya2dxyh","msl000060","freq_resp","","","img/green_2bandit_b.png","70","img/green_2bandit_b.png","70","test","","","","","","","","","2","","","","","","","","","","",""
"null","","1665899","SARL_v6kya2dxyh","msl000060","fixation","","","img/fixation.png","null","","","test","","","","","","","","","","","","","","","","","","","",""
"55","","1665959","SARL_v6kya2dxyh","msl000060","freq","","","img/green_2bandit_b2.png","70","","70","test","1","","","circle","square","44","43","20","2","0.8837209302325582","","","","","","","","","",""
"null","","1666709","SARL_v6kya2dxyh","msl000060","freq_resp","","","img/green_2bandit_b.png","70","img/green_2bandit_b.png","70","test","","","","","","","","","2","","","","","","","","","","",""
"null","","1666865","SARL_v6kya2dxyh","msl000060","fixation","","","img/fixation.png","null","","","test","","","","","","","","","","","","","","","","","","","",""
"173","","1667044","SARL_v6kya2dxyh","msl000060","infreq","","","img/orange_2bandit_b2.png","70","","68","test","0","","","circle","square","45","44","21","2","0.8636363636363636","","","","","","","","","",""
"null","","1667676","SARL_v6kya2dxyh","msl000060","infreq_resp","","","img/orange_2bandit_b.png","70","img/orange_2bandit_b.png","68","test","","","","","","","","","2","","","","","","","","","","",""
"null","","1667831","SARL_v6kya2dxyh","msl000060","fixation","","","img/fixation.png","null","","","test","","","","","","","","","","","","","","","","","","","",""
"487","","1668323","SARL_v6kya2dxyh","msl000060","freq","","","img/green_2bandit_b2.png","70","","70","test","1","","","circle","square","46","45","22","2","0.8666666666666667","","","","","","","","","",""
"null","","1668643","SARL_v6kya2dxyh","msl000060","freq_resp","","","img/green_2bandit_b.png","70","img/green_2bandit_b.png","70","test","","","","","","","","","2","","","","","","","","","","",""
"null","","1668798","SARL_v6kya2dxyh","msl000060","fixation","","","img/fixation.png","null","","","test","","","","","","","","","","","","","","","","","","","",""
"798","","1669602","SARL_v6kya2dxyh","msl000060","rl","","","img/black_2bandit_b2.png","74","","0","test","","","0","circle","square","47","","0","2","","74","0.2","0.8","0.3457108518805724","0.2","0.8","0.2","circle","2","0"
"null","","1670357","SARL_v6kya2dxyh","msl000060","feedback","","","img/boo_L_b.png","null","","na","test","","","","","","","","","2","","74","0.2","0.8","","","","0.2","","2",""
"null","","1671163","SARL_v6kya2dxyh","msl000060","freq","","","img/green_2bandit_b2.png","null","","70","test","0","","","circle","square","48","46","1","3","0.8478260869565217","","","","","","","","","",""
"null","","1671318","SARL_v6kya2dxyh","msl000060","fixation","","","img/fixation.png","null","","","test","","","","","","","","","","","","","","","","","","","",""
"769","","1672092","SARL_v6kya2dxyh","msl000060","freq","","","img/green_2bandit_b2.png","70","","70","test","1","","","circle","square","49","47","2","3","0.851063829787234","","","","","","","","","",""
"null","","1672128","SARL_v6kya2dxyh","msl000060","freq_resp","","","img/green_2bandit_b.png","70","img/green_2bandit_b.png","70","test","","","","","","","","","3","","","","","","","","","","",""
"null","","1672284","SARL_v6kya2dxyh","msl000060","fixation","","","img/fixation.png","null","","","test","","","","","","","","","","","","","","","","","","","",""
"766","","1673053","SARL_v6kya2dxyh","msl000060","freq","","","img/green_2bandit_b2.png","70","","70","test","1","","","circle","square","50","48","3","3","0.8541666666666666","","","","","","","","","",""
"null","","1673093","SARL_v6kya2dxyh","msl000060","freq_resp","","","img/green_2bandit_b.png","70","img/green_2bandit_b.png","70","test","","","","","","","","","3","","","","","","","","","","",""
"null","","1673248","SARL_v6kya2dxyh","msl000060","fixation","","","img/fixation.png","null","","","test","","","","","","","","","","","","","","","","","","","",""
"485","","1673738","SARL_v6kya2dxyh","msl000060","infreq","","","img/orange_2bandit_b2.png","68","","68","test","1","","","circle","square","51","49","4","3","0.8571428571428571","","","","","","","","","",""
"null","","1674059","SARL_v6kya2dxyh","msl000060","infreq_resp","","","img/orange_2bandit_b.png","68","img/orange_2bandit_b.png","68","test","","","","","","","","","3","","","","","","","","","","",""
"null","","1674214","SARL_v6kya2dxyh","msl000060","fixation","","","img/fixation.png","null","","","test","","","","","","","","","","","","","","","","","","","",""
"275","","1674493","SARL_v6kya2dxyh","msl000060","freq","","","img/green_2bandit_b2.png","70","","70","test","1","","","circle","square","52","50","5","3","0.86","","","","","","","","","",""
"null","","1675023","SARL_v6kya2dxyh","msl000060","freq_resp","","","img/green_2bandit_b.png","70","img/green_2bandit_b.png","70","test","","","","","","","","","3","","","","","","","","","","",""
"null","","1675180","SARL_v6kya2dxyh","msl000060","fixation","","","img/fixation.png","null","","","test","","","","","","","","","","","","","","","","","","","",""
"154","","1675337","SARL_v6kya2dxyh","msl000060","freq","","","img/green_2bandit_b2.png","70","","70","test","1","","","circle","square","53","51","6","3","0.8627450980392157","","","","","","","","","",""
"null","","1675990","SARL_v6kya2dxyh","msl000060","freq_resp","","","img/green_2bandit_b.png","70","img/green_2bandit_b.png","70","test","","","","","","","","","3","","","","","","","","","","",""
"null","","1676145","SARL_v6kya2dxyh","msl000060","fixation","","","img/fixation.png","null","","","test","","","","","","","","","","","","","","","","","","","",""
"128","","1676278","SARL_v6kya2dxyh","msl000060","freq","","","img/green_2bandit_b2.png","70","","70","test","1","","","circle","square","54","52","7","3","0.8653846153846154","","","","","","","","","",""
"null","","1676956","SARL_v6kya2dxyh","msl000060","freq_resp","","","img/green_2bandit_b.png","70","img/green_2bandit_b.png","70","test","","","","","","","","","3","","","","","","","","","","",""
"null","","1677111","SARL_v6kya2dxyh","msl000060","fixation","","","img/fixation.png","null","","","test","","","","","","","","","","","","","","","","","","","",""
"259","","1677375","SARL_v6kya2dxyh","msl000060","freq","","","img/green_2bandit_b2.png","70","","70","test","1","","","circle","square","55","53","8","3","0.8679245283018868","","","","","","","","","",""
"null","","1677922","SARL_v6kya2dxyh","msl000060","freq_resp","","","img/green_2bandit_b.png","70","img/green_2bandit_b.png","70","test","","","","","","","","","3","","","","","","","","","","",""
"null","","1678077","SARL_v6kya2dxyh","msl000060","fixation","","","img/fixation.png","null","","","test","","","","","","","","","","","","","","","","","","","",""
"null","","1678883","SARL_v6kya2dxyh","msl000060","infreq","","","img/orange_2bandit_b2.png","null","","68","test","0","","","circle","square","56","54","9","3","0.8518518518518519","","","","","","","","","",""
"null","","1679039","SARL_v6kya2dxyh","msl000060","fixation","","","img/fixation.png","null","","","test","","","","","","","","","","","","","","","","","","","",""
"684","","1679728","SARL_v6kya2dxyh","msl000060","freq","","","img/green_2bandit_b2.png","70","","70","test","1","","","circle","square","57","55","10","3","0.8545454545454545","","","","","","","","","",""
"null","","1679849","SARL_v6kya2dxyh","msl000060","freq_resp","","","img/green_2bandit_b.png","70","img/green_2bandit_b.png","70","test","","","","","","","","","3","","","","","","","","","","",""
"null","","1680005","SARL_v6kya2dxyh","msl000060","fixation","","","img/fixation.png","null","","","test","","","","","","","","","","","","","","","","","","","",""
"796","","1680806","SARL_v6kya2dxyh","msl000060","freq","","","img/green_2bandit_b2.png","70","","70","test","1","","","circle","square","58","56","11","3","0.8571428571428571","","","","","","","","","",""
"null","","1680814","SARL_v6kya2dxyh","msl000060","freq_resp","","","img/green_2bandit_b.png","70","img/green_2bandit_b.png","70","test","","","","","","","","","3","","","","","","","","","","",""
"null","","1680970","SARL_v6kya2dxyh","msl000060","fixation","","","img/fixation.png","null","","","test","","","","","","","","","","","","","","","","","","","",""
"675","","1681650","SARL_v6kya2dxyh","msl000060","freq","","","img/green_2bandit_b2.png","70","","70","test","1","","","circle","square","59","57","12","3","0.8596491228070176","","","","","","","","","",""
"null","","1681781","SARL_v6kya2dxyh","msl000060","freq_resp","","","img/green_2bandit_b.png","70","img/green_2bandit_b.png","70","test","","","","","","","","","3","","","","","","","","","","",""
"null","","1681937","SARL_v6kya2dxyh","msl000060","fixation","","","img/fixation.png","null","","","test","","","","","","","","","","","","","","","","","","","",""
"492","","1682433","SARL_v6kya2dxyh","msl000060","freq","","","img/green_2bandit_b2.png","70","","70","test","1","","","circle","square","60","58","13","3","0.8620689655172413","","","","","","","","","",""
"null","","1682747","SARL_v6kya2dxyh","msl000060","freq_resp","","","img/green_2bandit_b.png","70","img/green_2bandit_b.png","70","test","","","","","","","","","3","","","","","","","","","","",""
"null","","1682903","SARL_v6kya2dxyh","msl000060","fixation","","","img/fixation.png","null","","","test","","","","","","","","","","","","","","","","","","","",""
"413","","1683321","SARL_v6kya2dxyh","msl000060","freq","","","img/green_2bandit_b2.png","70","","70","test","1","","","circle","square","61","59","14","3","0.864406779661017","","","","","","","","","",""
"null","","1683713","SARL_v6kya2dxyh","msl000060","freq_resp","","","img/green_2bandit_b.png","70","img/green_2bandit_b.png","70","test","","","","","","","","","3","","","","","","","","","","",""
"null","","1683868","SARL_v6kya2dxyh","msl000060","fixation","","","img/fixation.png","null","","","test","","","","","","","","","","","","","","","","","","","",""
"347","","1684220","SARL_v6kya2dxyh","msl000060","freq","","","img/green_2bandit_b2.png","70","","70","test","1","","","circle","square","62","60","15","3","0.8666666666666667","","","","","","","","","",""
"null","","1684679","SARL_v6kya2dxyh","msl000060","freq_resp","","","img/green_2bandit_b.png","70","img/green_2bandit_b.png","70","test","","","","","","","","","3","","","","","","","","","","",""
"null","","1684835","SARL_v6kya2dxyh","msl000060","fixation","","","img/fixation.png","null","","","test","","","","","","","","","","","","","","","","","","","",""
"507","","1685348","SARL_v6kya2dxyh","msl000060","freq","","","img/green_2bandit_b2.png","70","","70","test","1","","","circle","square","63","61","16","3","0.8688524590163934","","","","","","","","","",""
"null","","1685647","SARL_v6kya2dxyh","msl000060","freq_resp","","","img/green_2bandit_b.png","70","img/green_2bandit_b.png","70","test","","","","","","","","","3","","","","","","","","","","",""
"null","","1685803","SARL_v6kya2dxyh","msl000060","fixation","","","img/fixation.png","null","","","test","","","","","","","","","","","","","","","","","","","",""
"463","","1686271","SARL_v6kya2dxyh","msl000060","freq","","","img/green_2bandit_b2.png","70","","70","test","1","","","circle","square","64","62","17","3","0.8709677419354839","","","","","","","","","",""
"null","","1686612","SARL_v6kya2dxyh","msl000060","freq_resp","","","img/green_2bandit_b.png","70","img/green_2bandit_b.png","70","test","","","","","","","","","3","","","","","","","","","","",""
"null","","1686769","SARL_v6kya2dxyh","msl000060","fixation","","","img/fixation.png","null","","","test","","","","","","","","","","","","","","","","","","","",""
"357","","1687131","SARL_v6kya2dxyh","msl000060","freq","","","img/green_2bandit_b2.png","70","","70","test","1","","","circle","square","65","63","18","3","0.873015873015873","","","","","","","","","",""
"null","","1687578","SARL_v6kya2dxyh","msl000060","freq_resp","","","img/green_2bandit_b.png","70","img/green_2bandit_b.png","70","test","","","","","","","","","3","","","","","","","","","","",""
"null","","1687733","SARL_v6kya2dxyh","msl000060","fixation","","","img/fixation.png","null","","","test","","","","","","","","","","","","","","","","","","","",""
"462","","1688199","SARL_v6kya2dxyh","msl000060","freq","","","img/green_2bandit_b2.png","70","","70","test","1","","","circle","square","66","64","19","3","0.875","","","","","","","","","",""
"null","","1688543","SARL_v6kya2dxyh","msl000060","freq_resp","","","img/green_2bandit_b.png","70","img/green_2bandit_b.png","70","test","","","","","","","","","3","","","","","","","","","","",""
"null","","1688698","SARL_v6kya2dxyh","msl000060","fixation","","","img/fixation.png","null","","","test","","","","","","","","","","","","","","","","","","","",""
"439","","1689142","SARL_v6kya2dxyh","msl000060","freq","","","img/green_2bandit_b2.png","70","","70","test","1","","","circle","square","67","65","20","3","0.8769230769230769","","","","","","","","","",""
"null","","1689508","SARL_v6kya2dxyh","msl000060","freq_resp","","","img/green_2bandit_b.png","70","img/green_2bandit_b.png","70","test","","","","","","","","","3","","","","","","","","","","",""
"null","","1689663","SARL_v6kya2dxyh","msl000060","fixation","","","img/fixation.png","null","","","test","","","","","","","","","","","","","","","","","","","",""
"411","","1690080","SARL_v6kya2dxyh","msl000060","freq","","","img/green_2bandit_b2.png","70","","70","test","1","","","circle","square","68","66","21","3","0.8787878787878788","","","","","","","","","",""
"null","","1690474","SARL_v6kya2dxyh","msl000060","freq_resp","","","img/green_2bandit_b.png","70","img/green_2bandit_b.png","70","test","","","","","","","","","3","","","","","","","","","","",""
"null","","1690630","SARL_v6kya2dxyh","msl000060","fixation","","","img/fixation.png","null","","","test","","","","","","","","","","","","","","","","","","","",""
"705","","1691341","SARL_v6kya2dxyh","msl000060","rl","","","img/black_2bandit_b2.png","74","","0","test","","","0","circle","square","69","","0","3","","74","0.2","0.8","0.2747796114072105","0.2","0.8","0.2","circle","3","0"
"null","","1692097","SARL_v6kya2dxyh","msl000060","feedback","","","img/boo_L_b.png","null","","na","test","","","","","","","","","3","","74","0.2","0.8","","","","0.2","","3",""
"null","","1692903","SARL_v6kya2dxyh","msl000060","freq","","","img/green_2bandit_b2.png","null","","70","test","0","","","circle","square","70","67","1","4","0.8656716417910447","","","","","","","","","",""
"null","","1693059","SARL_v6kya2dxyh","msl000060","fixation","","","img/fixation.png","null","","","test","","","","","","","","","","","","","","","","","","","",""
"null","","1693863","SARL_v6kya2dxyh","msl000060","freq","","","img/green_2bandit_b2.png","null","","70","test","0","","","circle","square","71","68","2","4","0.8529411764705882","","","","","","","","","",""
"null","","1694020","SARL_v6kya2dxyh","msl000060","fixation","","","img/fixation.png","null","","","test","","","","","","","","","","","","","","","","","","","",""
"null","","1694825","SARL_v6kya2dxyh","msl000060","freq","","","img/green_2bandit_b2.png","null","","70","test","0","","","circle","square","72","69","3","4","0.8405797101449275","","","","","","","","","",""
"null","","1694980","SARL_v6kya2dxyh","msl000060","fixation","","","img/fixation.png","null","","","test","","","","","","","","","","","","","","","","","","","",""
"null","","1695786","SARL_v6kya2dxyh","msl000060","infreq","","","img/orange_2bandit_b2.png","null","","68","test","0","","","circle","square","73","70","4","4","0.8285714285714286","","","","","","","","","",""
"null","","1695943","SARL_v6kya2dxyh","msl000060","fixation","","","img/fixation.png","null","","","test","","","","","","","","","","","","","","","","","","","",""
"38","","1695987","SARL_v6kya2dxyh","msl000060","freq","","","img/green_2bandit_b2.png","68","","70","test","0","","","circle","square","74","71","5","4","0.8169014084507042","","","","","","","","","",""
"null","","1696754","SARL_v6kya2dxyh","msl000060","freq_resp","","","img/green_2bandit_b.png","68","img/green_2bandit_b.png","70","test","","","","","","","","","4","","","","","","","","","","",""
"null","","1696910","SARL_v6kya2dxyh","msl000060","fixation","","","img/fixation.png","null","","","test","","","","","","","","","","","","","","","","","","","",""
"581","","1697496","SARL_v6kya2dxyh","msl000060","infreq","","","img/orange_2bandit_b2.png","68","","68","test","1","","","circle","square","75","72","6","4","0.8194444444444444","","","","","","","","","",""
"null","","1697721","SARL_v6kya2dxyh","msl000060","infreq_resp","","","img/orange_2bandit_b.png","68","img/orange_2bandit_b.png","68","test","","","","","","","","","4","","","","","","","","","","",""
"null","","1697876","SARL_v6kya2dxyh","msl000060","fixation","","","img/fixation.png","null","","","test","","","","","","","","","","","","","","","","","","","",""
"341","","1698222","SARL_v6kya2dxyh","msl000060","freq","","","img/green_2bandit_b2.png","70","","70","test","1","","","circle","square","76","73","7","4","0.821917808219178","","","","","","","","","",""
"null","","1698686","SARL_v6kya2dxyh","msl000060","freq_resp","","","img/green_2bandit_b.png","70","img/green_2bandit_b.png","70","test","","","","","","","","","4","","","","","","","","","","",""
"null","","1698842","SARL_v6kya2dxyh","msl000060","fixation","","","img/fixation.png","null","","","test","","","","","","","","","","","","","","","","","","","",""
"312","","1699159","SARL_v6kya2dxyh","msl000060","freq","","","img/green_2bandit_b2.png","68","","70","test","0","","","circle","square","77","74","8","4","0.8108108108108109","","","","","","","","","",""
"null","","1699652","SARL_v6kya2dxyh","msl000060","freq_resp","","","img/green_2bandit_b.png","68","img/green_2bandit_b.png","70","test","","","","","","","","","4","","","","","","","","","","",""
"null","","1699807","SARL_v6kya2dxyh","msl000060","fixation","","","img/fixation.png","null","","","test","","","","","","","","","","","","","","","","","","","",""
"495","","1700306","SARL_v6kya2dxyh","msl000060","freq","","","img/green_2bandit_b2.png","70","","70","test","1","","","circle","square","78","75","9","4","0.8133333333333334","","","","","","","","","",""
"null","","1700616","SARL_v6kya2dxyh","msl000060","freq_resp","","","img/green_2bandit_b.png","70","img/green_2bandit_b.png","70","test","","","","","","","","","4","","","","","","","","","","",""
"null","","1700771","SARL_v6kya2dxyh","msl000060","fixation","","","img/fixation.png","null","","","test","","","","","","","","","","","","","","","","","","","",""
"363","","1701140","SARL_v6kya2dxyh","msl000060","freq","","","img/green_2bandit_b2.png","70","","70","test","1","","","circle","square","79","76","10","4","0.8157894736842105","","","","","","","","","",""
"null","","1701582","SARL_v6kya2dxyh","msl000060","freq_resp","","","img/green_2bandit_b.png","70","img/green_2bandit_b.png","70","test","","","","","","","","","4","","","","","","","","","","",""
"null","","1701738","SARL_v6kya2dxyh","msl000060","fixation","","","img/fixation.png","null","","","test","","","","","","","","","","","","","","","","","","","",""
"328","","1702070","SARL_v6kya2dxyh","msl000060","freq","","","img/green_2bandit_b2.png","70","","70","test","1","","","circle","square","80","77","11","4","0.8181818181818182","","","","","","","","","",""
"null","","1702547","SARL_v6kya2dxyh","msl000060","freq_resp","","","img/green_2bandit_b.png","70","img/green_2bandit_b.png","70","test","","","","","","","","","4","","","","","","","","","","",""
"null","","1702704","SARL_v6kya2dxyh","msl000060","fixation","","","img/fixation.png","null","","","test","","","","","","","","","","","","","","","","","","","",""
"338","","1703047","SARL_v6kya2dxyh","msl000060","freq","","","img/green_2bandit_b2.png","70","","70","test","1","","","circle","square","81","78","12","4","0.8205128205128205","","","","","","","","","",""
"null","","1703515","SARL_v6kya2dxyh","msl000060","freq_resp","","","img/green_2bandit_b.png","70","img/green_2bandit_b.png","70","test","","","","","","","","","4","","","","","","","","","","",""
"null","","1703670","SARL_v6kya2dxyh","msl000060","fixation","","","img/fixation.png","null","","","test","","","","","","","","","","","","","","","","","","","",""
"354","","1704031","SARL_v6kya2dxyh","msl000060","freq","","","img/green_2bandit_b2.png","70","","70","test","1","","","circle","square","82","79","13","4","0.8227848101265823","","","","","","","","","",""
"null","","1704482","SARL_v6kya2dxyh","msl000060","freq_resp","","","img/green_2bandit_b.png","70","img/green_2bandit_b.png","70","test","","","","","","","","","4","","","","","","","","","","",""
"null","","1704637","SARL_v6kya2dxyh","msl000060","fixation","","","img/fixation.png","null","","","test","","","","","","","","","","","","","","","","","","","",""
"286","","1704928","SARL_v6kya2dxyh","msl000060","freq","","","img/green_2bandit_b2.png","70","","70","test","1","","","circle","square","83","80","14","4","0.825","","","","","","","","","",""
"null","","1705447","SARL_v6kya2dxyh","msl000060","freq_resp","","","img/green_2bandit_b.png","70","img/green_2bandit_b.png","70","test","","","","","","","","","4","","","","","","","","","","",""
"null","","1705603","SARL_v6kya2dxyh","msl000060","fixation","","","img/fixation.png","null","","","test","","","","","","","","","","","","","","","","","","","",""
"269","","1705876","SARL_v6kya2dxyh","msl000060","freq","","","img/green_2bandit_b2.png","70","","70","test","1","","","circle","square","84","81","15","4","0.8271604938271605","","","","","","","","","",""
"null","","1706413","SARL_v6kya2dxyh","msl000060","freq_resp","","","img/green_2bandit_b.png","70","img/green_2bandit_b.png","70","test","","","","","","","","","4","","","","","","","","","","",""
"null","","1706569","SARL_v6kya2dxyh","msl000060","fixation","","","img/fixation.png","null","","","test","","","","","","","","","","","","","","","","","","","",""
"318","","1706892","SARL_v6kya2dxyh","msl000060","freq","","","img/green_2bandit_b2.png","70","","70","test","1","","","circle","square","85","82","16","4","0.8292682926829268","","","","","","","","","",""
"null","","1707379","SARL_v6kya2dxyh","msl000060","freq_resp","","","img/green_2bandit_b.png","70","img/green_2bandit_b.png","70","test","","","","","","","","","4","","","","","","","","","","",""
"null","","1707534","SARL_v6kya2dxyh","msl000060","fixation","","","img/fixation.png","null","","","test","","","","","","","","","","","","","","","","","","","",""
"276","","1707814","SARL_v6kya2dxyh","msl000060","freq","","","img/green_2bandit_b2.png","70","","70","test","1","","","circle","square","86","83","17","4","0.8313253012048193","","","","","","","","","",""
"null","","1708344","SARL_v6kya2dxyh","msl000060","freq_resp","","","img/green_2bandit_b.png","70","img/green_2bandit_b.png","70","test","","","","","","","","","4","","","","","","","","","","",""
"null","","1708501","SARL_v6kya2dxyh","msl000060","fixation","","","img/fixation.png","null","","","test","","","","","","","","","","","","","","","","","","","",""
"293","","1708800","SARL_v6kya2dxyh","msl000060","freq","","","img/green_2bandit_b2.png","70","","70","test","1","","","circle","square","87","84","18","4","0.8333333333333334","","","","","","","","","",""
"null","","1709312","SARL_v6kya2dxyh","msl000060","freq_resp","","","img/green_2bandit_b.png","70","img/green_2bandit_b.png","70","test","","","","","","","","","4","","","","","","","","","","",""
"null","","1709469","SARL_v6kya2dxyh","msl000060","fixation","","","img/fixation.png","null","","","test","","","","","","","","","","","","","","","","","","","",""
"301","","1709775","SARL_v6kya2dxyh","msl000060","freq","","","img/green_2bandit_b2.png","70","","70","test","1","","","circle","square","88","85","19","4","0.8352941176470589","","","","","","","","","",""
"null","","1710280","SARL_v6kya2dxyh","msl000060","freq_resp","","","img/green_2bandit_b.png","70","img/green_2bandit_b.png","70","test","","","","","","","","","4","","","","","","","","","","",""
"null","","1710435","SARL_v6kya2dxyh","msl000060","fixation","","","img/fixation.png","null","","","test","","","","","","","","","","","","","","","","","","","",""
"520","","1710960","SARL_v6kya2dxyh","msl000060","infreq","","","img/orange_2bandit_b2.png","68","","68","test","1","","","circle","square","89","86","20","4","0.8372093023255814","","","","","","","","","",""
"null","","1711245","SARL_v6kya2dxyh","msl000060","infreq_resp","","","img/orange_2bandit_b.png","68","img/orange_2bandit_b.png","68","test","","","","","","","","","4","","","","","","","","","","",""
"null","","1711400","SARL_v6kya2dxyh","msl000060","fixation","","","img/fixation.png","null","","","test","","","","","","","","","","","","","","","","","","","",""
"418","","1711823","SARL_v6kya2dxyh","msl000060","freq","","","img/green_2bandit_b2.png","70","","70","test","1","","","circle","square","90","87","21","4","0.8390804597701149","","","","","","","","","",""
"null","","1712211","SARL_v6kya2dxyh","msl000060","freq_resp","","","img/green_2bandit_b.png","70","img/green_2bandit_b.png","70","test","","","","","","","","","4","","","","","","","","","","",""
"null","","1712367","SARL_v6kya2dxyh","msl000060","fixation","","","img/fixation.png","null","","","test","","","","","","","","","","","","","","","","","","","",""
"501","","1712874","SARL_v6kya2dxyh","msl000060","freq","","","img/green_2bandit_b2.png","70","","70","test","1","","","circle","square","91","88","22","4","0.8409090909090909","","","","","","","","","",""
"null","","1713178","SARL_v6kya2dxyh","msl000060","freq_resp","","","img/green_2bandit_b.png","70","img/green_2bandit_b.png","70","test","","","","","","","","","4","","","","","","","","","","",""
"null","","1713333","SARL_v6kya2dxyh","msl000060","fixation","","","img/fixation.png","null","","","test","","","","","","","","","","","","","","","","","","","",""
"451","","1713789","SARL_v6kya2dxyh","msl000060","freq","","","img/green_2bandit_b2.png","70","","70","test","1","","","circle","square","92","89","23","4","0.8426966292134831","","","","","","","","","",""
"null","","1714144","SARL_v6kya2dxyh","msl000060","freq_resp","","","img/green_2bandit_b.png","70","img/green_2bandit_b.png","70","test","","","","","","","","","4","","","","","","","","","","",""
"null","","1714300","SARL_v6kya2dxyh","msl000060","fixation","","","img/fixation.png","null","","","test","","","","","","","","","","","","","","","","","","","",""
"355","","1714660","SARL_v6kya2dxyh","msl000060","freq","","","img/green_2bandit_b2.png","70","","70","test","1","","","circle","square","93","90","24","4","0.8444444444444444","","","","","","","","","",""
"null","","1715111","SARL_v6kya2dxyh","msl000060","freq_resp","","","img/green_2bandit_b.png","70","img/green_2bandit_b.png","70","test","","","","","","","","","4","","","","","","","","","","",""
"null","","1715267","SARL_v6kya2dxyh","msl000060","fixation","","","img/fixation.png","null","","","test","","","","","","","","","","","","","","","","","","","",""
"430","","1715703","SARL_v6kya2dxyh","msl000060","freq","","","img/green_2bandit_b2.png","70","","70","test","1","","","circle","square","94","91","25","4","0.8461538461538461","","","","","","","","","",""
"null","","1716079","SARL_v6kya2dxyh","msl000060","freq_resp","","","img/green_2bandit_b.png","70","img/green_2bandit_b.png","70","test","","","","","","","","","4","","","","","","","","","","",""
"null","","1716234","SARL_v6kya2dxyh","msl000060","fixation","","","img/fixation.png","null","","","test","","","","","","","","","","","","","","","","","","","",""
"398","","1716638","SARL_v6kya2dxyh","msl000060","freq","","","img/green_2bandit_b2.png","70","","70","test","1","","","circle","square","95","92","26","4","0.8478260869565217","","","","","","","","","",""
"null","","1717046","SARL_v6kya2dxyh","msl000060","freq_resp","","","img/green_2bandit_b.png","70","img/green_2bandit_b.png","70","test","","","","","","","","","4","","","","","","","","","","",""
"null","","1717203","SARL_v6kya2dxyh","msl000060","fixation","","","img/fixation.png","null","","","test","","","","","","","","","","","","","","","","","","","",""
"352","","1717560","SARL_v6kya2dxyh","msl000060","freq","","","img/green_2bandit_b2.png","70","","70","test","1","","","circle","square","96","93","27","4","0.8494623655913979","","","","","","","","","",""
"null","","1718013","SARL_v6kya2dxyh","msl000060","freq_resp","","","img/green_2bandit_b.png","70","img/green_2bandit_b.png","70","test","","","","","","","","","4","","","","","","","","","","",""
"null","","1718168","SARL_v6kya2dxyh","msl000060","fixation","","","img/fixation.png","null","","","test","","","","","","","","","","","","","","","","","","","",""
"341","","1718515","SARL_v6kya2dxyh","msl000060","freq","","","img/green_2bandit_b2.png","70","","70","test","1","","","circle","square","97","94","28","4","0.851063829787234","","","","","","","","","",""
"null","","1718979","SARL_v6kya2dxyh","msl000060","freq_resp","","","img/green_2bandit_b.png","70","img/green_2bandit_b.png","70","test","","","","","","","","","4","","","","","","","","","","",""
"null","","1719134","SARL_v6kya2dxyh","msl000060","fixation","","","img/fixation.png","null","","","test","","","","","","","","","","","","","","","","","","","",""
"829","","1719969","SARL_v6kya2dxyh","msl000060","rl","","","img/black_2bandit_b2.png","75","","0","test","","","1","circle","square","98","","0","4","","75","0.2","0.8","0.7462837562956947","0.2","0.8","0.8","square","4","0"
"null","","1720724","SARL_v6kya2dxyh","msl000060","feedback","","","img/yay_R_b.png","null","","na","test","","","","","","","","","4","","75","0.2","0.8","","","","0.8","","4",""
"568","","1721298","SARL_v6kya2dxyh","msl000060","freq","","","img/green_2bandit_b2.png","70","","70","test","1","","","circle","square","99","95","1","5","0.8526315789473684","","","","","","","","","",""
"null","","1721537","SARL_v6kya2dxyh","msl000060","freq_resp","","","img/green_2bandit_b.png","70","img/green_2bandit_b.png","70","test","","","","","","","","","5","","","","","","","","","","",""
"null","","1721692","SARL_v6kya2dxyh","msl000060","fixation","","","img/fixation.png","null","","","test","","","","","","","","","","","","","","","","","","","",""
"455","","1722151","SARL_v6kya2dxyh","msl000060","freq","","","img/green_2bandit_b2.png","70","","70","test","1","","","circle","square","100","96","2","5","0.8541666666666666","","","","","","","","","",""
"null","","1722502","SARL_v6kya2dxyh","msl000060","freq_resp","","","img/green_2bandit_b.png","70","img/green_2bandit_b.png","70","test","","","","","","","","","5","","","","","","","","","","",""
"null","","1722657","SARL_v6kya2dxyh","msl000060","fixation","","","img/fixation.png","null","","","test","","","","","","","","","","","","","","","","","","","",""
"463","","1723124","SARL_v6kya2dxyh","msl000060","freq","","","img/green_2bandit_b2.png","70","","70","test","1","","","circle","square","101","97","3","5","0.8556701030927835","","","","","","","","","",""
"null","","1723468","SARL_v6kya2dxyh","msl000060","freq_resp","","","img/green_2bandit_b.png","70","img/green_2bandit_b.png","70","test","","","","","","","","","5","","","","","","","","","","",""
"null","","1723625","SARL_v6kya2dxyh","msl000060","fixation","","","img/fixation.png","null","","","test","","","","","","","","","","","","","","","","","","","",""
"375","","1724004","SARL_v6kya2dxyh","msl000060","freq","","","img/green_2bandit_b2.png","70","","70","test","1","","","circle","square","102","98","4","5","0.8571428571428571","","","","","","","","","",""
"null","","1724434","SARL_v6kya2dxyh","msl000060","freq_resp","","","img/green_2bandit_b.png","70","img/green_2bandit_b.png","70","test","","","","","","","","","5","","","","","","","","","","",""
"null","","1724590","SARL_v6kya2dxyh","msl000060","fixation","","","img/fixation.png","null","","","test","","","","","","","","","","","","","","","","","","","",""
"353","","1724947","SARL_v6kya2dxyh","msl000060","freq","","","img/green_2bandit_b2.png","70","","70","test","1","","","circle","square","103","99","5","5","0.8585858585858586","","","","","","","","","",""
"null","","1725400","SARL_v6kya2dxyh","msl000060","freq_resp","","","img/green_2bandit_b.png","70","img/green_2bandit_b.png","70","test","","","","","","","","","5","","","","","","","","","","",""
"null","","1725555","SARL_v6kya2dxyh","msl000060","fixation","","","img/fixation.png","null","","","test","","","","","","","","","","","","","","","","","","","",""
"334","","1725894","SARL_v6kya2dxyh","msl000060","freq","","","img/green_2bandit_b2.png","70","","70","test","1","","","circle","square","104","100","6","5","0.86","","","","","","","","","",""
"null","","1726366","SARL_v6kya2dxyh","msl000060","freq_resp","","","img/green_2bandit_b.png","70","img/green_2bandit_b.png","70","test","","","","","","","","","5","","","","","","","","","","",""
"null","","1726522","SARL_v6kya2dxyh","msl000060","fixation","","","img/fixation.png","null","","","test","","","","","","","","","","","","","","","","","","","",""
"301","","1726828","SARL_v6kya2dxyh","msl000060","freq","","","img/green_2bandit_b2.png","70","","70","test","1","","","circle","square","105","101","7","5","0.8613861386138614","","","","","","","","","",""
"null","","1727333","SARL_v6kya2dxyh","msl000060","freq_resp","","","img/green_2bandit_b.png","70","img/green_2bandit_b.png","70","test","","","","","","","","","5","","","","","","","","","","",""
"null","","1727490","SARL_v6kya2dxyh","msl000060","fixation","","","img/fixation.png","null","","","test","","","","","","","","","","","","","","","","","","","",""
"501","","1727995","SARL_v6kya2dxyh","msl000060","infreq","","","img/orange_2bandit_b2.png","68","","68","test","1","","","circle","square","106","102","8","5","0.8627450980392157","","","","","","","","","",""
"null","","1728299","SARL_v6kya2dxyh","msl000060","infreq_resp","","","img/orange_2bandit_b.png","68","img/orange_2bandit_b.png","68","test","","","","","","","","","5","","","","","","","","","","",""
"null","","1728455","SARL_v6kya2dxyh","msl000060","fixation","","","img/fixation.png","null","","","test","","","","","","","","","","","","","","","","","","","",""
"475","","1728935","SARL_v6kya2dxyh","msl000060","freq","","","img/green_2bandit_b2.png","70","","70","test","1","","","circle","square","107","103","9","5","0.8640776699029126","","","","","","","","","",""
"null","","1729265","SARL_v6kya2dxyh","msl000060","freq_resp","","","img/green_2bandit_b.png","70","img/green_2bandit_b.png","70","test","","","","","","","","","5","","","","","","","","","","",""
"null","","1729421","SARL_v6kya2dxyh","msl000060","fixation","","","img/fixation.png","null","","","test","","","","","","","","","","","","","","","","","","","",""
"452","","1729879","SARL_v6kya2dxyh","msl000060","freq","","","img/green_2bandit_b2.png","70","","70","test","1","","","circle","square","108","104","10","5","0.8653846153846154","","","","","","","","","",""
"null","","1730232","SARL_v6kya2dxyh","msl000060","freq_resp","","","img/green_2bandit_b.png","70","img/green_2bandit_b.png","70","test","","","","","","","","","5","","","","","","","","","","",""
"null","","1730388","SARL_v6kya2dxyh","msl000060","fixation","","","img/fixation.png","null","","","test","","","","","","","","","","","","","","","","","","","",""
"435","","1730827","SARL_v6kya2dxyh","msl000060","freq","","","img/green_2bandit_b2.png","70","","70","test","1","","","circle","square","109","105","11","5","0.8666666666666667","","","","","","","","","",""
"null","","1731197","SARL_v6kya2dxyh","msl000060","freq_resp","","","img/green_2bandit_b.png","70","img/green_2bandit_b.png","70","test","","","","","","","","","5","","","","","","","","","","",""
"null","","1731353","SARL_v6kya2dxyh","msl000060","fixation","","","img/fixation.png","null","","","test","","","","","","","","","","","","","","","","","","","",""
"363","","1731721","SARL_v6kya2dxyh","msl000060","freq","","","img/green_2bandit_b2.png","70","","70","test","1","","","circle","square","110","106","12","5","0.8679245283018868","","","","","","","","","",""
"null","","1732164","SARL_v6kya2dxyh","msl000060","freq_resp","","","img/green_2bandit_b.png","70","img/green_2bandit_b.png","70","test","","","","","","","","","5","","","","","","","","","","",""
"null","","1732320","SARL_v6kya2dxyh","msl000060","fixation","","","img/fixation.png","null","","","test","","","","","","","","","","","","","","","","","","","",""
"497","","1732821","SARL_v6kya2dxyh","msl000060","infreq","","","img/orange_2bandit_b2.png","68","","68","test","1","","","circle","square","111","107","13","5","0.8691588785046729","","","","","","","","","",""
"null","","1733129","SARL_v6kya2dxyh","msl000060","infreq_resp","","","img/orange_2bandit_b.png","68","img/orange_2bandit_b.png","68","test","","","","","","","","","5","","","","","","","","","","",""
"null","","1733285","SARL_v6kya2dxyh","msl000060","fixation","","","img/fixation.png","null","","","test","","","","","","","","","","","","","","","","","","","",""
"468","","1733757","SARL_v6kya2dxyh","msl000060","freq","","","img/green_2bandit_b2.png","70","","70","test","1","","","circle","square","112","108","14","5","0.8703703703703703","","","","","","","","","",""
"null","","1734096","SARL_v6kya2dxyh","msl000060","freq_resp","","","img/green_2bandit_b.png","70","img/green_2bandit_b.png","70","test","","","","","","","","","5","","","","","","","","","","",""
"null","","1734252","SARL_v6kya2dxyh","msl000060","fixation","","","img/fixation.png","null","","","test","","","","","","","","","","","","","","","","","","","",""
"374","","1734631","SARL_v6kya2dxyh","msl000060","freq","","","img/green_2bandit_b2.png","70","","70","test","1","","","circle","square","113","109","15","5","0.8715596330275229","","","","","","","","","",""
"null","","1735062","SARL_v6kya2dxyh","msl000060","freq_resp","","","img/green_2bandit_b.png","70","img/green_2bandit_b.png","70","test","","","","","","","","","5","","","","","","","","","","",""
"null","","1735218","SARL_v6kya2dxyh","msl000060","fixation","","","img/fixation.png","null","","","test","","","","","","","","","","","","","","","","","","","",""
"372","","1735595","SARL_v6kya2dxyh","msl000060","freq","","","img/green_2bandit_b2.png","70","","70","test","1","","","circle","square","114","110","16","5","0.8727272727272727","","","","","","","","","",""
"null","","1736029","SARL_v6kya2dxyh","msl000060","freq_resp","","","img/green_2bandit_b.png","70","img/green_2bandit_b.png","70","test","","","","","","","","","5","","","","","","","","","","",""
"null","","1736183","SARL_v6kya2dxyh","msl000060","fixation","","","img/fixation.png","null","","","test","","","","","","","","","","","","","","","","","","","",""
"344","","1736533","SARL_v6kya2dxyh","msl000060","freq","","","img/green_2bandit_b2.png","70","","70","test","1","","","circle","square","115","111","17","5","0.8738738738738738","","","","","","","","","",""
"null","","1736995","SARL_v6kya2dxyh","msl000060","freq_resp","","","img/green_2bandit_b.png","70","img/green_2bandit_b.png","70","test","","","","","","","","","5","","","","","","","","","","",""
"null","","1737151","SARL_v6kya2dxyh","msl000060","fixation","","","img/fixation.png","null","","","test","","","","","","","","","","","","","","","","","","","",""
"388","","1737544","SARL_v6kya2dxyh","msl000060","freq","","","img/green_2bandit_b2.png","70","","70","test","1","","","circle","square","116","112","18","5","0.875","","","","","","","","","",""
"null","","1737961","SARL_v6kya2dxyh","msl000060","freq_resp","","","img/green_2bandit_b.png","70","img/green_2bandit_b.png","70","test","","","","","","","","","5","","","","","","","","","","",""
"null","","1738117","SARL_v6kya2dxyh","msl000060","fixation","","","img/fixation.png","null","","","test","","","","","","","","","","","","","","","","","","","",""
"377","","1738500","SARL_v6kya2dxyh","msl000060","freq","","","img/green_2bandit_b2.png","70","","70","test","1","","","circle","square","117","113","19","5","0.8761061946902655","","","","","","","","","",""
"null","","1738928","SARL_v6kya2dxyh","msl000060","freq_resp","","","img/green_2bandit_b.png","70","img/green_2bandit_b.png","70","test","","","","","","","","","5","","","","","","","","","","",""
"null","","1739084","SARL_v6kya2dxyh","msl000060","fixation","","","img/fixation.png","null","","","test","","","","","","","","","","","","","","","","","","","",""
"366","","1739455","SARL_v6kya2dxyh","msl000060","freq","","","img/green_2bandit_b2.png","70","","70","test","1","","","circle","square","118","114","20","5","0.8771929824561403","","","","","","","","","",""
"null","","1739894","SARL_v6kya2dxyh","msl000060","freq_resp","","","img/green_2bandit_b.png","70","img/green_2bandit_b.png","70","test","","","","","","","","","5","","","","","","","","","","",""
"null","","1740050","SARL_v6kya2dxyh","msl000060","fixation","","","img/fixation.png","null","","","test","","","","","","","","","","","","","","","","","","","",""
"353","","1740408","SARL_v6kya2dxyh","msl000060","freq","","","img/green_2bandit_b2.png","70","","70","test","1","","","circle","square","119","115","21","5","0.8782608695652174","","","","","","","","","",""
"null","","1740860","SARL_v6kya2dxyh","msl000060","freq_resp","","","img/green_2bandit_b.png","70","img/green_2bandit_b.png","70","test","","","","","","","","","5","","","","","","","","","","",""
"null","","1741015","SARL_v6kya2dxyh","msl000060","fixation","","","img/fixation.png","null","","","test","","","","","","","","","","","","","","","","","","","",""
"345","","1741365","SARL_v6kya2dxyh","msl000060","freq","","","img/green_2bandit_b2.png","70","","70","test","1","","","circle","square","120","116","22","5","0.8793103448275862","","","","","","","","","",""
"null","","1741826","SARL_v6kya2dxyh","msl000060","freq_resp","","","img/green_2bandit_b.png","70","img/green_2bandit_b.png","70","test","","","","","","","","","5","","","","","","","","","","",""
"null","","1741981","SARL_v6kya2dxyh","msl000060","fixation","","","img/fixation.png","null","","","test","","","","","","","","","","","","","","","","","","","",""
"375","","1742361","SARL_v6kya2dxyh","msl000060","infreq","","","img/orange_2bandit_b2.png","68","","68","test","1","","","circle","square","121","117","23","5","0.8803418803418803","","","","","","","","","",""
"null","","1742792","SARL_v6kya2dxyh","msl000060","infreq_resp","","","img/orange_2bandit_b.png","68","img/orange_2bandit_b.png","68","test","","","","","","","","","5","","","","","","","","","","",""
"null","","1742947","SARL_v6kya2dxyh","msl000060","fixation","","","img/fixation.png","null","","","test","","","","","","","","","","","","","","","","","","","",""
"367","","1743319","SARL_v6kya2dxyh","msl000060","freq","","","img/green_2bandit_b2.png","70","","70","test","1","","","circle","square","122","118","24","5","0.8813559322033898","","","","","","","","","",""
"null","","1743758","SARL_v6kya2dxyh","msl000060","freq_resp","","","img/green_2bandit_b.png","70","img/green_2bandit_b.png","70","test","","","","","","","","","5","","","","","","","","","","",""
"null","","1743913","SARL_v6kya2dxyh","msl000060","fixation","","","img/fixation.png","null","","","test","","","","","","","","","","","","","","","","","","","",""
"304","","1744222","SARL_v6kya2dxyh","msl000060","infreq","","","img/orange_2bandit_b2.png","70","","68","test","0","","","circle","square","123","119","25","5","0.8739495798319328","","","","","","","","","",""
"null","","1744724","SARL_v6kya2dxyh","msl000060","infreq_resp","","","img/orange_2bandit_b.png","70","img/orange_2bandit_b.png","68","test","","","","","","","","","5","","","","","","","","","","",""
"null","","1744879","SARL_v6kya2dxyh","msl000060","fixation","","","img/fixation.png","null","","","test","","","","","","","","","","","","","","","","","","","",""
"306","","1745190","SARL_v6kya2dxyh","msl000060","freq","","","img/green_2bandit_b2.png","70","","70","test","1","","","circle","square","124","120","26","5","0.875","","","","","","","","","",""
"null","","1745689","SARL_v6kya2dxyh","msl000060","freq_resp","","","img/green_2bandit_b.png","70","img/green_2bandit_b.png","70","test","","","","","","","","","5","","","","","","","","","","",""
"null","","1745845","SARL_v6kya2dxyh","msl000060","fixation","","","img/fixation.png","null","","","test","","","","","","","","","","","","","","","","","","","",""
"328","","1746177","SARL_v6kya2dxyh","msl000060","freq","","","img/green_2bandit_b2.png","70","","70","test","1","","","circle","square","125","121","27","5","0.8760330578512396","","","","","","","","","",""
"null","","1746655","SARL_v6kya2dxyh","msl000060","freq_resp","","","img/green_2bandit_b.png","70","img/green_2bandit_b.png","70","test","","","","","","","","","5","","","","","","","","","","",""
"null","","1746811","SARL_v6kya2dxyh","msl000060","fixation","","","img/fixation.png","null","","","test","","","","","","","","","","","","","","","","","","","",""
"315","","1747132","SARL_v6kya2dxyh","msl000060","freq","","","img/green_2bandit_b2.png","70","","70","test","1","","","circle","square","126","122","28","5","0.8770491803278688","","","","","","","","","",""
"null","","1747623","SARL_v6kya2dxyh","msl000060","freq_resp","","","img/green_2bandit_b.png","70","img/green_2bandit_b.png","70","test","","","","","","","","","5","","","","","","","","","","",""
"null","","1747779","SARL_v6kya2dxyh","msl000060","fixation","","","img/fixation.png","null","","","test","","","","","","","","","","","","","","","","","","","",""
"753","","1748538","SARL_v6kya2dxyh","msl000060","rl","","","img/black_2bandit_b2.png","74","","0","test","","","1","circle","square","127","","0","5","","74","0.2","0.8","0.03658637497672845","0.2","0.8","0.2","circle","5","0"
"null","","1749294","SARL_v6kya2dxyh","msl000060","feedback","","","img/yay_L_b.png","null","","na","test","","","","","","","","","5","","74","0.2","0.8","","","","0.2","","5",""
"513","","1749812","SARL_v6kya2dxyh","msl000060","freq","","","img/green_2bandit_b2.png","70","","70","test","1","","","circle","square","128","123","1","6","0.8780487804878049","","","","","","","","","",""
"null","","1750105","SARL_v6kya2dxyh","msl000060","freq_resp","","","img/green_2bandit_b.png","70","img/green_2bandit_b.png","70","test","","","","","","","","","6","","","","","","","","","","",""
"null","","1750260","SARL_v6kya2dxyh","msl000060","fixation","","","img/fixation.png","null","","","test","","","","","","","","","","","","","","","","","","","",""
"641","","1750907","SARL_v6kya2dxyh","msl000060","infreq","","","img/orange_2bandit_b2.png","68","","68","test","1","","","circle","square","129","124","2","6","0.8790322580645161","","","","","","","","","",""
"null","","1751072","SARL_v6kya2dxyh","msl000060","infreq_resp","","","img/orange_2bandit_b.png","68","img/orange_2bandit_b.png","68","test","","","","","","","","","6","","","","","","","","","","",""
"null","","1751228","SARL_v6kya2dxyh","msl000060","fixation","","","img/fixation.png","null","","","test","","","","","","","","","","","","","","","","","","","",""
"597","","1751830","SARL_v6kya2dxyh","msl000060","freq","","","img/green_2bandit_b2.png","70","","70","test","1","","","circle","square","130","125","3","6","0.88","","","","","","","","","",""
"null","","1752037","SARL_v6kya2dxyh","msl000060","freq_resp","","","img/green_2bandit_b.png","70","img/green_2bandit_b.png","70","test","","","","","","","","","6","","","","","","","","","","",""
"null","","1752193","SARL_v6kya2dxyh","msl000060","fixation","","","img/fixation.png","null","","","test","","","","","","","","","","","","","","","","","","","",""
"426","","1752623","SARL_v6kya2dxyh","msl000060","freq","","","img/green_2bandit_b2.png","70","","70","test","1","","","circle","square","131","126","4","6","0.8809523809523809","","","","","","","","","",""
"null","","1753004","SARL_v6kya2dxyh","msl000060","freq_resp","","","img/green_2bandit_b.png","70","img/green_2bandit_b.png","70","test","","","","","","","","","6","","","","","","","","","","",""
"null","","1753159","SARL_v6kya2dxyh","msl000060","fixation","","","img/fixation.png","null","","","test","","","","","","","","","","","","","","","","","","","",""
"361","","1753525","SARL_v6kya2dxyh","msl000060","freq","","","img/green_2bandit_b2.png","70","","70","test","1","","","circle","square","132","127","5","6","0.8818897637795275","","","","","","","","","",""
"null","","1753969","SARL_v6kya2dxyh","msl000060","freq_resp","","","img/green_2bandit_b.png","70","img/green_2bandit_b.png","70","test","","","","","","","","","6","","","","","","","","","","",""
"null","","1754125","SARL_v6kya2dxyh","msl000060","fixation","","","img/fixation.png","null","","","test","","","","","","","","","","","","","","","","","","","",""
"369","","1754501","SARL_v6kya2dxyh","msl000060","freq","","","img/green_2bandit_b2.png","70","","70","test","1","","","circle","square","133","128","6","6","0.8828125","","","","","","","","","",""
"null","","1754938","SARL_v6kya2dxyh","msl000060","freq_resp","","","img/green_2bandit_b.png","70","img/green_2bandit_b.png","70","test","","","","","","","","","6","","","","","","","","","","",""
"null","","1755094","SARL_v6kya2dxyh","msl000060","fixation","","","img/fixation.png","null","","","test","","","","","","","","","","","","","","","","","","","",""
"484","","1755582","SARL_v6kya2dxyh","msl000060","freq","","","img/green_2bandit_b2.png","70","","70","test","1","","","circle","square","134","129","7","6","0.8837209302325582","","","","","","","","","",""
"null","","1755904","SARL_v6kya2dxyh","msl000060","freq_resp","","","img/green_2bandit_b.png","70","img/green_2bandit_b.png","70","test","","","","","","","","","6","","","","","","","","","","",""
"null","","1756060","SARL_v6kya2dxyh","msl000060","fixation","","","img/fixation.png","null","","","test","","","","","","","","","","","","","","","","","","","",""
"370","","1756435","SARL_v6kya2dxyh","msl000060","freq","","","img/green_2bandit_b2.png","70","","70","test","1","","","circle","square","135","130","8","6","0.8846153846153846","","","","","","","","","",""
"null","","1756871","SARL_v6kya2dxyh","msl000060","freq_resp","","","img/green_2bandit_b.png","70","img/green_2bandit_b.png","70","test","","","","","","","","","6","","","","","","","","","","",""
"null","","1757028","SARL_v6kya2dxyh","msl000060","fixation","","","img/fixation.png","null","","","test","","","","","","","","","","","","","","","","","","","",""
"571","","1757604","SARL_v6kya2dxyh","msl000060","infreq","","","img/orange_2bandit_b2.png","68","","68","test","1","","","circle","square","136","131","9","6","0.8854961832061069","","","","","","","","","",""
"null","","1757839","SARL_v6kya2dxyh","msl000060","infreq_resp","","","img/orange_2bandit_b.png","68","img/orange_2bandit_b.png","68","test","","","","","","","","","6","","","","","","","","","","",""
"null","","1757995","SARL_v6kya2dxyh","msl000060","fixation","","","img/fixation.png","null","","","test","","","","","","","","","","","","","","","","","","","",""
"333","","1758333","SARL_v6kya2dxyh","msl000060","freq","","","img/green_2bandit_b2.png","70","","70","test","1","","","circle","square","137","132","10","6","0.8863636363636364","","","","","","","","","",""
"null","","1758805","SARL_v6kya2dxyh","msl000060","freq_resp","","","img/green_2bandit_b.png","70","img/green_2bandit_b.png","70","test","","","","","","","","","6","","","","","","","","","","",""
"null","","1758960","SARL_v6kya2dxyh","msl000060","fixation","","","img/fixation.png","null","","","test","","","","","","","","","","","","","","","","","","","",""
"297","","1759262","SARL_v6kya2dxyh","msl000060","freq","","","img/green_2bandit_b2.png","70","","70","test","1","","","circle","square","138","133","11","6","0.8872180451127819","","","","","","","","","",""
"null","","1759771","SARL_v6kya2dxyh","msl000060","freq_resp","","","img/green_2bandit_b.png","70","img/green_2bandit_b.png","70","test","","","","","","","","","6","","","","","","","","","","",""
"null","","1759926","SARL_v6kya2dxyh","msl000060","fixation","","","img/fixation.png","null","","","test","","","","","","","","","","","","","","","","","","","",""
"224","","1760155","SARL_v6kya2dxyh","msl000060","freq","","","img/green_2bandit_b2.png","70","","70","test","1","","","circle","square","139","134","12","6","0.8880597014925373","","","","","","","","","",""
"null","","1760737","SARL_v6kya2dxyh","msl000060","freq_resp","","","img/green_2bandit_b.png","70","img/green_2bandit_b.png","70","test","","","","","","","","","6","","","","","","","","","","",""
"null","","1760893","SARL_v6kya2dxyh","msl000060","fixation","","","img/fixation.png","null","","","test","","","","","","","","","","","","","","","","","","","",""
"285","","1761182","SARL_v6kya2dxyh","msl000060","infreq","","","img/orange_2bandit_b2.png","70","","68","test","0","","","circle","square","140","135","13","6","0.8814814814814815","","","","","","","","","",""
"null","","1761704","SARL_v6kya2dxyh","msl000060","infreq_resp","","","img/orange_2bandit_b.png","70","img/orange_2bandit_b.png","68","test","","","","","","","","","6","","","","","","","","","","",""
"null","","1761860","SARL_v6kya2dxyh","msl000060","fixation","","","img/fixation.png","null","","","test","","","","","","","","","","","","","","","","","","","",""
"665","","1762529","SARL_v6kya2dxyh","msl000060","freq","","","img/green_2bandit_b2.png","70","","70","test","1","","","circle","square","141","136","14","6","0.8823529411764706","","","","","","","","","",""
"null","","1762670","SARL_v6kya2dxyh","msl000060","freq_resp","","","img/green_2bandit_b.png","70","img/green_2bandit_b.png","70","test","","","","","","","","","6","","","","","","","","","","",""
"null","","1762825","SARL_v6kya2dxyh","msl000060","fixation","","","img/fixation.png","null","","","test","","","","","","","","","","","","","","","","","","","",""
"541","","1763371","SARL_v6kya2dxyh","msl000060","freq","","","img/green_2bandit_b2.png","70","","70","test","1","","","circle","square","142","137","15","6","0.8832116788321168","","","","","","","","","",""
"null","","1763636","SARL_v6kya2dxyh","msl000060","freq_resp","","","img/green_2bandit_b.png","70","img/green_2bandit_b.png","70","test","","","","","","","","","6","","","","","","","","","","",""
"null","","1763791","SARL_v6kya2dxyh","msl000060","fixation","","","img/fixation.png","null","","","test","","","","","","","","","","","","","","","","","","","",""
"599","","1764394","SARL_v6kya2dxyh","msl000060","freq","","","img/green_2bandit_b2.png","70","","70","test","1","","","circle","square","143","138","16","6","0.8840579710144928","","","","","","","","","",""
"null","","1764601","SARL_v6kya2dxyh","msl000060","freq_resp","","","img/green_2bandit_b.png","70","img/green_2bandit_b.png","70","test","","","","","","","","","6","","","","","","","","","","",""
"null","","1764756","SARL_v6kya2dxyh","msl000060","fixation","","","img/fixation.png","null","","","test","","","","","","","","","","","","","","","","","","","",""
"437","","1765197","SARL_v6kya2dxyh","msl000060","freq","","","img/green_2bandit_b2.png","70","","70","test","1","","","circle","square","144","139","17","6","0.8848920863309353","","","","","","","","","",""
"null","","1765565","SARL_v6kya2dxyh","msl000060","freq_resp","","","img/green_2bandit_b.png","70","img/green_2bandit_b.png","70","test","","","","","","","","","6","","","","","","","","","","",""
"null","","1765720","SARL_v6kya2dxyh","msl000060","fixation","","","img/fixation.png","null","","","test","","","","","","","","","","","","","","","","","","","",""
"477","","1766201","SARL_v6kya2dxyh","msl000060","freq","","","img/green_2bandit_b2.png","70","","70","test","1","","","circle","square","145","140","18","6","0.8857142857142857","","","","","","","","","",""
"null","","1766530","SARL_v6kya2dxyh","msl000060","freq_resp","","","img/green_2bandit_b.png","70","img/green_2bandit_b.png","70","test","","","","","","","","","6","","","","","","","","","","",""
"null","","1766686","SARL_v6kya2dxyh","msl000060","fixation","","","img/fixation.png","null","","","test","","","","","","","","","","","","","","","","","","","",""
"399","","1767090","SARL_v6kya2dxyh","msl000060","freq","","","img/green_2bandit_b2.png","70","","70","test","1","","","circle","square","146","141","19","6","0.8865248226950354","","","","","","","","","",""
"null","","1767496","SARL_v6kya2dxyh","msl000060","freq_resp","","","img/green_2bandit_b.png","70","img/green_2bandit_b.png","70","test","","","","","","","","","6","","","","","","","","","","",""
"null","","1767652","SARL_v6kya2dxyh","msl000060","fixation","","","img/fixation.png","null","","","test","","","","","","","","","","","","","","","","","","","",""
"292","","1767949","SARL_v6kya2dxyh","msl000060","freq","","","img/green_2bandit_b2.png","70","","70","test","1","","","circle","square","147","142","20","6","0.8873239436619719","","","","","","","","","",""
"null","","1768463","SARL_v6kya2dxyh","msl000060","freq_resp","","","img/green_2bandit_b.png","70","img/green_2bandit_b.png","70","test","","","","","","","","","6","","","","","","","","","","",""
"null","","1768618","SARL_v6kya2dxyh","msl000060","fixation","","","img/fixation.png","null","","","test","","","","","","","","","","","","","","","","","","","",""
"710","","1769333","SARL_v6kya2dxyh","msl000060","rl","","","img/black_2bandit_b2.png","75","","0","test","","","1","circle","square","148","","0","6","","75","0.2","0.8","0.3274588329298038","0.2","0.8","0.8","square","6","0"
"null","","1770089","SARL_v6kya2dxyh","msl000060","feedback","","","img/yay_R_b.png","null","","na","test","","","","","","","","","6","","75","0.2","0.8","","","","0.8","","6",""
"394","","1770485","SARL_v6kya2dxyh","msl000060","freq","","","img/green_2bandit_b2.png","70","","70","test","1","","","circle","square","149","143","1","7","0.8881118881118881","","","","","","","","","",""
"null","","1770896","SARL_v6kya2dxyh","msl000060","freq_resp","","","img/green_2bandit_b.png","70","img/green_2bandit_b.png","70","test","","","","","","","","","7","","","","","","","","","","",""
"null","","1771052","SARL_v6kya2dxyh","msl000060","fixation","","","img/fixation.png","null","","","test","","","","","","","","","","","","","","","","","","","",""
"352","","1771411","SARL_v6kya2dxyh","msl000060","freq","","","img/green_2bandit_b2.png","70","","70","test","1","","","circle","square","150","144","2","7","0.8888888888888888","","","","","","","","","",""
"null","","1771863","SARL_v6kya2dxyh","msl000060","freq_resp","","","img/green_2bandit_b.png","70","img/green_2bandit_b.png","70","test","","","","","","","","","7","","","","","","","","","","",""
"null","","1772017","SARL_v6kya2dxyh","msl000060","fixation","","","img/fixation.png","null","","","test","","","","","","","","","","","","","","","","","","","",""
"312","","1772335","SARL_v6kya2dxyh","msl000060","freq","","","img/green_2bandit_b2.png","70","","70","test","1","","","circle","square","151","145","3","7","0.8896551724137931","","","","","","","","","",""
"null","","1772828","SARL_v6kya2dxyh","msl000060","freq_resp","","","img/green_2bandit_b.png","70","img/green_2bandit_b.png","70","test","","","","","","","","","7","","","","","","","","","","",""
"null","","1772984","SARL_v6kya2dxyh","msl000060","fixation","","","img/fixation.png","null","","","test","","","","","","","","","","","","","","","","","","","",""
"203","","1773193","SARL_v6kya2dxyh","msl000060","freq","","","img/green_2bandit_b2.png","70","","70","test","1","","","circle","square","152","146","4","7","0.8904109589041096","","","","","","","","","",""
"null","","1773795","SARL_v6kya2dxyh","msl000060","freq_resp","","","img/green_2bandit_b.png","70","img/green_2bandit_b.png","70","test","","","","","","","","","7","","","","","","","","","","",""
