"rt","responses","time_elapsed","subject","demoID","trialType","rlType","attType","stimulus","key_press","stim","corrresp","phase","corr","pracCounter","reward","bandOne","bandTwo","trialNum","attentionNum","attentionRunNum","blockNum","performance","bandChosen","circleVal","squareVal","coin","bandOneVal","bandTwoVal","pReward","shapeChosen","rlNum","badFlag"
"1474292","{""Q0"":""msl000093""}","1474317","SARL_v65sf7npah","msl000093","","","","","","","","","","","","","","","","","","","","","","","","","","","",""
"14848","","1489171","SARL_v65sf7npah","msl000093","","","","","","","","","","","","","","","","","","","","","","","","","","","",""
"","","1494135","SARL_v65sf7npah","msl000093","fullscreen","fullscreen","fullscreen","","","","","","","","","","","","","","","","","","","","","","","","",""
"76369","","1570509","SARL_v65sf7npah","msl000093","","","","","","","","","","","","","","","","","","","","","","","","","","","",""
"642","","1571157","SARL_v65sf7npah","msl000093","freqPrac","","","img/green_2bandit_a2.png","70","img/green_2bandit_a2.png","70","prac","1","0","","","","","","","","","","","","","","","","","",""
"642","","1571322","SARL_v65sf7npah","msl000093","freqPrac_resp","","","img/green_2bandit_a.png","70","img/green_2bandit_a.png","70","prac","","","","","","","","","","","","","","","","","","","",""
"null","","1571478","SARL_v65sf7npah","msl000093","fixation","","","img/fixation.png","null","","","prac","","","","","","","","","","","","","","","","","","","",""
"613","","1572097","SARL_v65sf7npah","msl000093","infreqPrac","","","img/orange_2bandit_a2.png","68","img/orange_2bandit_a2.png","68","prac","1","0","","","","","","","","","","","","","","","","","",""
"613","","1572290","SARL_v65sf7npah","msl000093","infreqPrac_resp","","","img/orange_2bandit_a.png","68","img/orange_2bandit_a.png","68","prac","","","","","","","","","","","","","","","","","","","",""
"null","","1572445","SARL_v65sf7npah","msl000093","fixation","","","img/fixation.png","null","","","prac","","","","","","","","","","","","","","","","","","","",""
"431","","1572882","SARL_v65sf7npah","msl000093","freqPrac","","","img/green_2bandit_a2.png","70","img/green_2bandit_a2.png","70","prac","1","0","","","","","","","","","","","","","","","","","",""
"431","","1573256","SARL_v65sf7npah","msl000093","freqPrac_resp","","","img/green_2bandit_a.png","70","img/green_2bandit_a.png","70","prac","","","","","","","","","","","","","","","","","","","",""
"null","","1573411","SARL_v65sf7npah","msl000093","fixation","","","img/fixation.png","null","","","prac","","","","","","","","","","","","","","","","","","","",""
"490","","1573906","SARL_v65sf7npah","msl000093","infreqPrac","","","img/orange_2bandit_a2.png","68","img/orange_2bandit_a2.png","68","prac","1","0","","","","","","","","","","","","","","","","","",""
"490","","1574223","SARL_v65sf7npah","msl000093","infreqPrac_resp","","","img/orange_2bandit_a.png","68","img/orange_2bandit_a.png","68","prac","","","","","","","","","","","","","","","","","","","",""
"null","","1574378","SARL_v65sf7npah","msl000093","fixation","","","img/fixation.png","null","","","prac","","","","","","","","","","","","","","","","","","","",""
"477","","1574859","SARL_v65sf7npah","msl000093","infreqPrac","","","img/orange_2bandit_a2.png","68","img/orange_2bandit_a2.png","68","prac","1","0","","","","","","","","","","","","","","","","","",""
"477","","1575189","SARL_v65sf7npah","msl000093","infreqPrac_resp","","","img/orange_2bandit_a.png","68","img/orange_2bandit_a.png","68","prac","","","","","","","","","","","","","","","","","","","",""
"null","","1575345","SARL_v65sf7npah","msl000093","fixation","","","img/fixation.png","null","","","prac","","","","","","","","","","","","","","","","","","","",""
"394","","1575744","SARL_v65sf7npah","msl000093","infreqPrac","","","img/orange_2bandit_a2.png","68","img/orange_2bandit_a2.png","68","prac","1","0","","","","","","","","","","","","","","","","","",""
"394","","1576155","SARL_v65sf7npah","msl000093","infreqPrac_resp","","","img/orange_2bandit_a.png","68","img/orange_2bandit_a.png","68","prac","","","","","","","","","","","","","","","","","","","",""
"null","","1576311","SARL_v65sf7npah","msl000093","fixation","","","img/fixation.png","null","","","prac","","","","","","","","","","","","","","","","","","","",""
"439","","1576756","SARL_v65sf7npah","msl000093","freqPrac","","","img/green_2bandit_a2.png","70","img/green_2bandit_a2.png","70","prac","1","0","","","","","","","","","","","","","","","","","",""
"439","","1577123","SARL_v65sf7npah","msl000093","freqPrac_resp","","","img/green_2bandit_a.png","70","img/green_2bandit_a.png","70","prac","","","","","","","","","","","","","","","","","","","",""
"null","","1577278","SARL_v65sf7npah","msl000093","fixation","","","img/fixation.png","null","","","prac","","","","","","","","","","","","","","","","","","","",""
"437","","1577719","SARL_v65sf7npah","msl000093","infreqPrac","","","img/orange_2bandit_a2.png","68","img/orange_2bandit_a2.png","68","prac","1","0","","","","","","","","","","","","","","","","","",""
"437","","1578087","SARL_v65sf7npah","msl000093","infreqPrac_resp","","","img/orange_2bandit_a.png","68","img/orange_2bandit_a.png","68","prac","","","","","","","","","","","","","","","","","","","",""
"null","","1578243","SARL_v65sf7npah","msl000093","fixation","","","img/fixation.png","null","","","prac","","","","","","","","","","","","","","","","","","","",""
"535","","1578784","SARL_v65sf7npah","msl000093","freqPrac","","","img/green_2bandit_a2.png","70","img/green_2bandit_a2.png","70","prac","1","0","","","","","","","","","","","","","","","","","",""
"535","","1579055","SARL_v65sf7npah","msl000093","freqPrac_resp","","","img/green_2bandit_a.png","70","img/green_2bandit_a.png","70","prac","","","","","","","","","","","","","","","","","","","",""
"null","","1579210","SARL_v65sf7npah","msl000093","fixation","","","img/fixation.png","null","","","prac","","","","","","","","","","","","","","","","","","","",""
"452","","1579666","SARL_v65sf7npah","msl000093","freqPrac","","","img/green_2bandit_a2.png","70","img/green_2bandit_a2.png","70","prac","1","0","","","","","","","","","","","","","","","","","",""
"452","","1580019","SARL_v65sf7npah","msl000093","freqPrac_resp","","","img/green_2bandit_a.png","70","img/green_2bandit_a.png","70","prac","","","","","","","","","","","","","","","","","","","",""
"null","","1580175","SARL_v65sf7npah","msl000093","fixation","","","img/fixation.png","null","","","prac","","","","","","","","","","","","","","","","","","","",""
"48158","","1628338","SARL_v65sf7npah","msl000093","","","","","","","","prac","","","","","","","","","","","","","","","","","","","",""
"340","","1628683","SARL_v65sf7npah","msl000093","rlPractice","","","img/black_2bandit_a2.png","74","img/black_2bandit_a2.png","","prac","","","75","","","","","","","","","","","","","","","","",""
"null","","1629440","SARL_v65sf7npah","msl000093","feedback","","","img/boo_L_a.png","null","","na","prac","","","","","","","","","","","","","","","","","","","",""
"null","","1629595","SARL_v65sf7npah","msl000093","fixation","","","img/fixation.png","null","","","prac","","","","","","","","","","","","","","","","","","","",""
"684","","1630284","SARL_v65sf7npah","msl000093","rlPractice","","","img/black_2bandit_a2.png","75","img/black_2bandit_a2.png","","prac","","","75","","","","","","","","","","","","","","","","",""
"null","","1631039","SARL_v65sf7npah","msl000093","feedback","","","img/yay_R_a.png","null","","na","prac","","","","","","","","","","","","","","","","","","","",""
"null","","1631196","SARL_v65sf7npah","msl000093","fixation","","","img/fixation.png","null","","","prac","","","","","","","","","","","","","","","","","","","",""
"393","","1631594","SARL_v65sf7npah","msl000093","rlPractice","","","img/black_2bandit_a2.png","75","img/black_2bandit_a2.png","","prac","","","75","","","","","","","","","","","","","","","","",""
"null","","1632350","SARL_v65sf7npah","msl000093","feedback","","","img/yay_R_a.png","null","","na","prac","","","","","","","","","","","","","","","","","","","",""
"null","","1632506","SARL_v65sf7npah","msl000093","fixation","","","img/fixation.png","null","","","prac","","","","","","","","","","","","","","","","","","","",""
"404","","1632915","SARL_v65sf7npah","msl000093","rlPractice","","","img/black_2bandit_a2.png","75","img/black_2bandit_a2.png","","prac","","","75","","","","","","","","","","","","","","","","",""
"null","","1633670","SARL_v65sf7npah","msl000093","feedback","","","img/yay_R_a.png","null","","na","prac","","","","","","","","","","","","","","","","","","","",""
"null","","1633825","SARL_v65sf7npah","msl000093","fixation","","","img/fixation.png","null","","","prac","","","","","","","","","","","","","","","","","","","",""
"396","","1634227","SARL_v65sf7npah","msl000093","rlPractice","","","img/black_2bandit_a2.png","75","img/black_2bandit_a2.png","","prac","","","75","","","","","","","","","","","","","","","","",""
"null","","1634982","SARL_v65sf7npah","msl000093","feedback","","","img/yay_R_a.png","null","","na","prac","","","","","","","","","","","","","","","","","","","",""
"null","","1635138","SARL_v65sf7npah","msl000093","fixation","","","img/fixation.png","null","","","prac","","","","","","","","","","","","","","","","","","","",""
"356","","1635500","SARL_v65sf7npah","msl000093","rlPractice","","","img/black_2bandit_a2.png","75","img/black_2bandit_a2.png","","prac","","","75","","","","","","","","","","","","","","","","",""
"null","","1636256","SARL_v65sf7npah","msl000093","feedback","","","img/yay_R_a.png","null","","na","prac","","","","","","","","","","","","","","","","","","","",""
"null","","1636412","SARL_v65sf7npah","msl000093","fixation","","","img/fixation.png","null","","","prac","","","","","","","","","","","","","","","","","","","",""
"376","","1636793","SARL_v65sf7npah","msl000093","rlPractice","","","img/black_2bandit_a2.png","75","img/black_2bandit_a2.png","","prac","","","75","","","","","","","","","","","","","","","","",""
"null","","1637549","SARL_v65sf7npah","msl000093","feedback","","","img/yay_R_a.png","null","","na","prac","","","","","","","","","","","","","","","","","","","",""
"null","","1637704","SARL_v65sf7npah","msl000093","fixation","","","img/fixation.png","null","","","prac","","","","","","","","","","","","","","","","","","","",""
"10289","","1647997","SARL_v65sf7npah","msl000093","","","","","","","","prac","","","","","","","","","","","","","","","","","","","",""
"null","","1648802","SARL_v65sf7npah","msl000093","mixAttFreqPrac","","","img/green_2bandit_a2.png","null","img/green_2bandit_a2.png","70","prac","","","","","","","","","","","","","","","","","","","",""
"null","","1648957","SARL_v65sf7npah","msl000093","fixation","","","img/fixation.png","null","","","prac","","","","","","","","","","","","","","","","","","","",""
"48","","1649010","SARL_v65sf7npah","msl000093","mixAttInfreqPrac","","","img/orange_2bandit_a2.png","70","img/orange_2bandit_a2.png","68","prac","","","","","","","","","","","","","","","","","","","",""
"48","","1649768","SARL_v65sf7npah","msl000093","infreqPrac_resp","","","img/orange_2bandit_a.png","70","img/green_2bandit_a.png","68","prac","","","","","","","","","","","","","","","","","","","",""
"null","","1649924","SARL_v65sf7npah","msl000093","fixation","","","img/fixation.png","null","","","prac","","","","","","","","","","","","","","","","","","","",""
"352","","1650281","SARL_v65sf7npah","msl000093","mixAttInfreqPrac","","","img/orange_2bandit_a2.png","68","img/orange_2bandit_a2.png","68","prac","","","","","","","","","","","","","","","","","","","",""
"352","","1650735","SARL_v65sf7npah","msl000093","infreqPrac_resp","","","img/orange_2bandit_a.png","68","img/green_2bandit_a.png","68","prac","","","","","","","","","","","","","","","","","","","",""
"null","","1650891","SARL_v65sf7npah","msl000093","fixation","","","img/fixation.png","null","","","prac","","","","","","","","","","","","","","","","","","","",""
"352","","1651247","SARL_v65sf7npah","msl000093","mixAttInfreqPrac","","","img/orange_2bandit_a2.png","68","img/orange_2bandit_a2.png","68","prac","","","","","","","","","","","","","","","","","","","",""
"352","","1651701","SARL_v65sf7npah","msl000093","infreqPrac_resp","","","img/orange_2bandit_a.png","68","img/green_2bandit_a.png","68","prac","","","","","","","","","","","","","","","","","","","",""
"null","","1651856","SARL_v65sf7npah","msl000093","fixation","","","img/fixation.png","null","","","prac","","","","","","","","","","","","","","","","","","","",""
"441","","1652301","SARL_v65sf7npah","msl000093","mixAttFreqPrac","","","img/green_2bandit_a2.png","70","img/green_2bandit_a2.png","70","prac","","","","","","","","","","","","","","","","","","","",""
"441","","1652666","SARL_v65sf7npah","msl000093","freqPrac_resp","","","img/green_2bandit_a.png","70","img/green_2bandit_a.png","70","prac","","","","","","","","","","","","","","","","","","","",""
"null","","1652822","SARL_v65sf7npah","msl000093","fixation","","","img/fixation.png","null","","","prac","","","","","","","","","","","","","","","","","","","",""
"629","","1653455","SARL_v65sf7npah","msl000093","mixRLPractice","","","img/black_2bandit_a2.png","75","img/black_2bandit_a2.png","","prac","","","","","","","","","","","","","","","","","","","",""
"null","","1654210","SARL_v65sf7npah","msl000093","feedback","","","img/yay_R_a.png","null","","na","prac","","","","","","","","","","","","","","","","","","","",""
"764","","1654979","SARL_v65sf7npah","msl000093","mixAttFreqPrac","","","img/green_2bandit_a2.png","70","img/green_2bandit_a2.png","70","prac","","","","","","","","","","","","","","","","","","","",""
"764","","1655020","SARL_v65sf7npah","msl000093","freqPrac_resp","","","img/green_2bandit_a.png","70","img/green_2bandit_a.png","70","prac","","","","","","","","","","","","","","","","","","","",""
"null","","1655177","SARL_v65sf7npah","msl000093","fixation","","","img/fixation.png","null","","","prac","","","","","","","","","","","","","","","","","","","",""
"538","","1655718","SARL_v65sf7npah","msl000093","mixAttInfreqPrac","","","img/orange_2bandit_a2.png","68","img/orange_2bandit_a2.png","68","prac","","","","","","","","","","","","","","","","","","","",""
"538","","1655985","SARL_v65sf7npah","msl000093","infreqPrac_resp","","","img/orange_2bandit_a.png","68","img/green_2bandit_a.png","68","prac","","","","","","","","","","","","","","","","","","","",""
"null","","1656140","SARL_v65sf7npah","msl000093","fixation","","","img/fixation.png","null","","","prac","","","","","","","","","","","","","","","","","","","",""
"418","","1656563","SARL_v65sf7npah","msl000093","mixAttFreqPrac","","","img/green_2bandit_a2.png","70","img/green_2bandit_a2.png","70","prac","","","","","","","","","","","","","","","","","","","",""
"418","","1656952","SARL_v65sf7npah","msl000093","freqPrac_resp","","","img/green_2bandit_a.png","70","img/green_2bandit_a.png","70","prac","","","","","","","","","","","","","","","","","","","",""
"null","","1657106","SARL_v65sf7npah","msl000093","fixation","","","img/fixation.png","null","","","prac","","","","","","","","","","","","","","","","","","","",""
"415","","1657524","SARL_v65sf7npah","msl000093","mixAttFreqPrac","","","img/green_2bandit_a2.png","70","img/green_2bandit_a2.png","70","prac","","","","","","","","","","","","","","","","","","","",""
"415","","1657915","SARL_v65sf7npah","msl000093","freqPrac_resp","","","img/green_2bandit_a.png","70","img/green_2bandit_a.png","70","prac","","","","","","","","","","","","","","","","","","","",""
"null","","1658071","SARL_v65sf7npah","msl000093","fixation","","","img/fixation.png","null","","","prac","","","","","","","","","","","","","","","","","","","",""
"403","","1658479","SARL_v65sf7npah","msl000093","mixAttInfreqPrac","","","img/orange_2bandit_a2.png","68","img/orange_2bandit_a2.png","68","prac","","","","","","","","","","","","","","","","","","","",""
"403","","1658883","SARL_v65sf7npah","msl000093","infreqPrac_resp","","","img/orange_2bandit_a.png","68","img/green_2bandit_a.png","68","prac","","","","","","","","","","","","","","","","","","","",""
"null","","1659039","SARL_v65sf7npah","msl000093","fixation","","","img/fixation.png","null","","","prac","","","","","","","","","","","","","","","","","","","",""
"841","","1659884","SARL_v65sf7npah","msl000093","mixRLPractice","","","img/black_2bandit_a2.png","74","img/black_2bandit_a2.png","","prac","","","","","","","","","","","","","","","","","","","",""
"null","","1660640","SARL_v65sf7npah","msl000093","feedback","","","img/yay_L_a.png","null","","na","prac","","","","","","","","","","","","","","","","","","","",""
"14658","","1675302","SARL_v65sf7npah","msl000093","","","","","","","","prac","","","","","","","","","","","","","","","","","","","",""
"null","","1676108","SARL_v65sf7npah","msl000093","freq","","","img/green_2bandit_a2.png","null","","70","test","0","","","square","circle","1","1","1","1","0","","","","","","","","","",""
"null","","1676264","SARL_v65sf7npah","msl000093","fixation","","","img/fixation.png","null","","","test","","","","","","","","","","","","","","","","","","","",""
"149","","1676417","SARL_v65sf7npah","msl000093","freq","","","img/green_2bandit_a2.png","70","","70","test","1","","","square","circle","2","2","2","1","0.5","","","","","","","","","",""
"null","","1677074","SARL_v65sf7npah","msl000093","freq_resp","","","img/green_2bandit_a.png","70","img/green_2bandit_a.png","70","test","","","","","","","","","1","","","","","","","","","","",""
"null","","1677229","SARL_v65sf7npah","msl000093","fixation","","","img/fixation.png","null","","","test","","","","","","","","","","","","","","","","","","","",""
"412","","1677645","SARL_v65sf7npah","msl000093","infreq","","","img/orange_2bandit_a2.png","68","","68","test","1","","","square","circle","3","3","3","1","0.6666666666666666","","","","","","","","","",""
"null","","1678039","SARL_v65sf7npah","msl000093","infreq_resp","","","img/orange_2bandit_a.png","68","img/orange_2bandit_a.png","68","test","","","","","","","","","1","","","","","","","","","","",""
"null","","1678194","SARL_v65sf7npah","msl000093","fixation","","","img/fixation.png","null","","","test","","","","","","","","","","","","","","","","","","","",""
"385","","1678584","SARL_v65sf7npah","msl000093","freq","","","img/green_2bandit_a2.png","70","","70","test","1","","","square","circle","4","4","4","1","0.75","","","","","","","","","",""
"null","","1679005","SARL_v65sf7npah","msl000093","freq_resp","","","img/green_2bandit_a.png","70","img/green_2bandit_a.png","70","test","","","","","","","","","1","","","","","","","","","","",""
"null","","1679161","SARL_v65sf7npah","msl000093","fixation","","","img/fixation.png","null","","","test","","","","","","","","","","","","","","","","","","","",""
"321","","1679488","SARL_v65sf7npah","msl000093","freq","","","img/green_2bandit_a2.png","70","","70","test","1","","","square","circle","5","5","5","1","0.8","","","","","","","","","",""
"null","","1679972","SARL_v65sf7npah","msl000093","freq_resp","","","img/green_2bandit_a.png","70","img/green_2bandit_a.png","70","test","","","","","","","","","1","","","","","","","","","","",""
"null","","1680128","SARL_v65sf7npah","msl000093","fixation","","","img/fixation.png","null","","","test","","","","","","","","","","","","","","","","","","","",""
"333","","1680466","SARL_v65sf7npah","msl000093","freq","","","img/green_2bandit_a2.png","70","","70","test","1","","","square","circle","6","6","6","1","0.8333333333333334","","","","","","","","","",""
"null","","1680939","SARL_v65sf7npah","msl000093","freq_resp","","","img/green_2bandit_a.png","70","img/green_2bandit_a.png","70","test","","","","","","","","","1","","","","","","","","","","",""
"null","","1681094","SARL_v65sf7npah","msl000093","fixation","","","img/fixation.png","null","","","test","","","","","","","","","","","","","","","","","","","",""
"324","","1681424","SARL_v65sf7npah","msl000093","freq","","","img/green_2bandit_a2.png","70","","70","test","1","","","square","circle","7","7","7","1","0.8571428571428571","","","","","","","","","",""
"null","","1681906","SARL_v65sf7npah","msl000093","freq_resp","","","img/green_2bandit_a.png","70","img/green_2bandit_a.png","70","test","","","","","","","","","1","","","","","","","","","","",""
"null","","1682061","SARL_v65sf7npah","msl000093","fixation","","","img/fixation.png","null","","","test","","","","","","","","","","","","","","","","","","","",""
"338","","1682403","SARL_v65sf7npah","msl000093","freq","","","img/green_2bandit_a2.png","70","","70","test","1","","","square","circle","8","8","8","1","0.875","","","","","","","","","",""
"null","","1682871","SARL_v65sf7npah","msl000093","freq_resp","","","img/green_2bandit_a.png","70","img/green_2bandit_a.png","70","test","","","","","","","","","1","","","","","","","","","","",""
"null","","1683027","SARL_v65sf7npah","msl000093","fixation","","","img/fixation.png","null","","","test","","","","","","","","","","","","","","","","","","","",""
"325","","1683357","SARL_v65sf7npah","msl000093","freq","","","img/green_2bandit_a2.png","70","","70","test","1","","","square","circle","9","9","9","1","0.8888888888888888","","","","","","","","","",""
"null","","1683837","SARL_v65sf7npah","msl000093","freq_resp","","","img/green_2bandit_a.png","70","img/green_2bandit_a.png","70","test","","","","","","","","","1","","","","","","","","","","",""
"null","","1683993","SARL_v65sf7npah","msl000093","fixation","","","img/fixation.png","null","","","test","","","","","","","","","","","","","","","","","","","",""
"308","","1684306","SARL_v65sf7npah","msl000093","freq","","","img/green_2bandit_a2.png","70","","70","test","1","","","square","circle","10","10","10","1","0.9","","","","","","","","","",""
"null","","1684803","SARL_v65sf7npah","msl000093","freq_resp","","","img/green_2bandit_a.png","70","img/green_2bandit_a.png","70","test","","","","","","","","","1","","","","","","","","","","",""
"null","","1684959","SARL_v65sf7npah","msl000093","fixation","","","img/fixation.png","null","","","test","","","","","","","","","","","","","","","","","","","",""
"270","","1685234","SARL_v65sf7npah","msl000093","freq","","","img/green_2bandit_a2.png","70","","70","test","1","","","square","circle","11","11","11","1","0.9090909090909091","","","","","","","","","",""
"null","","1685770","SARL_v65sf7npah","msl000093","freq_resp","","","img/green_2bandit_a.png","70","img/green_2bandit_a.png","70","test","","","","","","","","","1","","","","","","","","","","",""
"null","","1685925","SARL_v65sf7npah","msl000093","fixation","","","img/fixation.png","null","","","test","","","","","","","","","","","","","","","","","","","",""
"246","","1686176","SARL_v65sf7npah","msl000093","freq","","","img/green_2bandit_a2.png","70","","70","test","1","","","square","circle","12","12","12","1","0.9166666666666666","","","","","","","","","",""
"null","","1686736","SARL_v65sf7npah","msl000093","freq_resp","","","img/green_2bandit_a.png","70","img/green_2bandit_a.png","70","test","","","","","","","","","1","","","","","","","","","","",""
"null","","1686891","SARL_v65sf7npah","msl000093","fixation","","","img/fixation.png","null","","","test","","","","","","","","","","","","","","","","","","","",""
"219","","1687115","SARL_v65sf7npah","msl000093","freq","","","img/green_2bandit_a2.png","70","","70","test","1","","","square","circle","13","13","13","1","0.9230769230769231","","","","","","","","","",""
"null","","1687703","SARL_v65sf7npah","msl000093","freq_resp","","","img/green_2bandit_a.png","70","img/green_2bandit_a.png","70","test","","","","","","","","","1","","","","","","","","","","",""
"null","","1687857","SARL_v65sf7npah","msl000093","fixation","","","img/fixation.png","null","","","test","","","","","","","","","","","","","","","","","","","",""
"86","","1687949","SARL_v65sf7npah","msl000093","freq","","","img/green_2bandit_a2.png","70","","70","test","1","","","square","circle","14","14","14","1","0.9285714285714286","","","","","","","","","",""
"null","","1688669","SARL_v65sf7npah","msl000093","freq_resp","","","img/green_2bandit_a.png","70","img/green_2bandit_a.png","70","test","","","","","","","","","1","","","","","","","","","","",""
"null","","1688824","SARL_v65sf7npah","msl000093","fixation","","","img/fixation.png","null","","","test","","","","","","","","","","","","","","","","","","","",""
"99","","1688929","SARL_v65sf7npah","msl000093","infreq","","","img/orange_2bandit_a2.png","70","","68","test","0","","","square","circle","15","15","15","1","0.8666666666666667","","","","","","","","","",""
"null","","1689636","SARL_v65sf7npah","msl000093","infreq_resp","","","img/orange_2bandit_a.png","70","img/orange_2bandit_a.png","68","test","","","","","","","","","1","","","","","","","","","","",""
"null","","1689791","SARL_v65sf7npah","msl000093","fixation","","","img/fixation.png","null","","","test","","","","","","","","","","","","","","","","","","","",""
"486","","1690282","SARL_v65sf7npah","msl000093","freq","","","img/green_2bandit_a2.png","70","","70","test","1","","","square","circle","16","16","16","1","0.875","","","","","","","","","",""
"null","","1690601","SARL_v65sf7npah","msl000093","freq_resp","","","img/green_2bandit_a.png","70","img/green_2bandit_a.png","70","test","","","","","","","","","1","","","","","","","","","","",""
"null","","1690756","SARL_v65sf7npah","msl000093","fixation","","","img/fixation.png","null","","","test","","","","","","","","","","","","","","","","","","","",""
"335","","1691096","SARL_v65sf7npah","msl000093","freq","","","img/green_2bandit_a2.png","70","","70","test","1","","","square","circle","17","17","17","1","0.8823529411764706","","","","","","","","","",""
"null","","1691568","SARL_v65sf7npah","msl000093","freq_resp","","","img/green_2bandit_a.png","70","img/green_2bandit_a.png","70","test","","","","","","","","","1","","","","","","","","","","",""
"null","","1691723","SARL_v65sf7npah","msl000093","fixation","","","img/fixation.png","null","","","test","","","","","","","","","","","","","","","","","","","",""
"316","","1692044","SARL_v65sf7npah","msl000093","infreq","","","img/orange_2bandit_a2.png","70","","68","test","0","","","square","circle","18","18","18","1","0.8333333333333334","","","","","","","","","",""
"null","","1692534","SARL_v65sf7npah","msl000093","infreq_resp","","","img/orange_2bandit_a.png","70","img/orange_2bandit_a.png","68","test","","","","","","","","","1","","","","","","","","","","",""
"null","","1692689","SARL_v65sf7npah","msl000093","fixation","","","img/fixation.png","null","","","test","","","","","","","","","","","","","","","","","","","",""
"421","","1693116","SARL_v65sf7npah","msl000093","freq","","","img/green_2bandit_a2.png","70","","70","test","1","","","square","circle","19","19","19","1","0.8421052631578947","","","","","","","","","",""
"null","","1693500","SARL_v65sf7npah","msl000093","freq_resp","","","img/green_2bandit_a.png","70","img/green_2bandit_a.png","70","test","","","","","","","","","1","","","","","","","","","","",""
"null","","1693655","SARL_v65sf7npah","msl000093","fixation","","","img/fixation.png","null","","","test","","","","","","","","","","","","","","","","","","","",""
"319","","1693979","SARL_v65sf7npah","msl000093","freq","","","img/green_2bandit_a2.png","70","","70","test","1","","","square","circle","20","20","20","1","0.85","","","","","","","","","",""
"null","","1694466","SARL_v65sf7npah","msl000093","freq_resp","","","img/green_2bandit_a.png","70","img/green_2bandit_a.png","70","test","","","","","","","","","1","","","","","","","","","","",""
"null","","1694620","SARL_v65sf7npah","msl000093","fixation","","","img/fixation.png","null","","","test","","","","","","","","","","","","","","","","","","","",""
"398","","1695023","SARL_v65sf7npah","msl000093","freq","","","img/green_2bandit_a2.png","70","","70","test","1","","","square","circle","21","21","21","1","0.8571428571428571","","","","","","","","","",""
"null","","1695431","SARL_v65sf7npah","msl000093","freq_resp","","","img/green_2bandit_a.png","70","img/green_2bandit_a.png","70","test","","","","","","","","","1","","","","","","","","","","",""
"null","","1695586","SARL_v65sf7npah","msl000093","fixation","","","img/fixation.png","null","","","test","","","","","","","","","","","","","","","","","","","",""
"362","","1695953","SARL_v65sf7npah","msl000093","freq","","","img/green_2bandit_a2.png","70","","70","test","1","","","square","circle","22","22","22","1","0.8636363636363636","","","","","","","","","",""
"null","","1696396","SARL_v65sf7npah","msl000093","freq_resp","","","img/green_2bandit_a.png","70","img/green_2bandit_a.png","70","test","","","","","","","","","1","","","","","","","","","","",""
"null","","1696552","SARL_v65sf7npah","msl000093","fixation","","","img/fixation.png","null","","","test","","","","","","","","","","","","","","","","","","","",""
"369","","1696925","SARL_v65sf7npah","msl000093","freq","","","img/green_2bandit_a2.png","70","","70","test","1","","","square","circle","23","23","23","1","0.8695652173913043","","","","","","","","","",""
"null","","1697361","SARL_v65sf7npah","msl000093","freq_resp","","","img/green_2bandit_a.png","70","img/green_2bandit_a.png","70","test","","","","","","","","","1","","","","","","","","","","",""
"null","","1697516","SARL_v65sf7npah","msl000093","fixation","","","img/fixation.png","null","","","test","","","","","","","","","","","","","","","","","","","",""
"317","","1697838","SARL_v65sf7npah","msl000093","freq","","","img/green_2bandit_a2.png","70","","70","test","1","","","square","circle","24","24","24","1","0.875","","","","","","","","","",""
"null","","1698327","SARL_v65sf7npah","msl000093","freq_resp","","","img/green_2bandit_a.png","70","img/green_2bandit_a.png","70","test","","","","","","","","","1","","","","","","","","","","",""
"null","","1698484","SARL_v65sf7npah","msl000093","fixation","","","img/fixation.png","null","","","test","","","","","","","","","","","","","","","","","","","",""
"725","","1699213","SARL_v65sf7npah","msl000093","rl","","","img/black_2bandit_a2.png","74","","0","test","","","0","square","circle","25","","0","1","","74","0.8","0.2","0.7609575843567168","0.2","0.8","0.2","square","1","0"
"null","","1699968","SARL_v65sf7npah","msl000093","feedback","","","img/boo_L_a.png","null","","na","test","","","","","","","","","1","","74","0.8","0.2","","","","0.2","","1",""
"735","","1700707","SARL_v65sf7npah","msl000093","freq","","","img/green_2bandit_a2.png","70","","70","test","1","","","square","circle","26","25","1","2","0.88","","","","","","","","","",""
"null","","1700778","SARL_v65sf7npah","msl000093","freq_resp","","","img/green_2bandit_a.png","70","img/green_2bandit_a.png","70","test","","","","","","","","","2","","","","","","","","","","",""
"null","","1700934","SARL_v65sf7npah","msl000093","fixation","","","img/fixation.png","null","","","test","","","","","","","","","","","","","","","","","","","",""
"420","","1701360","SARL_v65sf7npah","msl000093","freq","","","img/green_2bandit_a2.png","70","","70","test","1","","","square","circle","27","26","2","2","0.8846153846153846","","","","","","","","","",""
"null","","1701745","SARL_v65sf7npah","msl000093","freq_resp","","","img/green_2bandit_a.png","70","img/green_2bandit_a.png","70","test","","","","","","","","","2","","","","","","","","","","",""
"null","","1701900","SARL_v65sf7npah","msl000093","fixation","","","img/fixation.png","null","","","test","","","","","","","","","","","","","","","","","","","",""
"312","","1702218","SARL_v65sf7npah","msl000093","freq","","","img/green_2bandit_a2.png","70","","70","test","1","","","square","circle","28","27","3","2","0.8888888888888888","","","","","","","","","",""
"null","","1702710","SARL_v65sf7npah","msl000093","freq_resp","","","img/green_2bandit_a.png","70","img/green_2bandit_a.png","70","test","","","","","","","","","2","","","","","","","","","","",""
"null","","1702867","SARL_v65sf7npah","msl000093","fixation","","","img/fixation.png","null","","","test","","","","","","","","","","","","","","","","","","","",""
"301","","1703173","SARL_v65sf7npah","msl000093","freq","","","img/green_2bandit_a2.png","70","","70","test","1","","","square","circle","29","28","4","2","0.8928571428571429","","","","","","","","","",""
"null","","1703677","SARL_v65sf7npah","msl000093","freq_resp","","","img/green_2bandit_a.png","70","img/green_2bandit_a.png","70","test","","","","","","","","","2","","","","","","","","","","",""
"null","","1703833","SARL_v65sf7npah","msl000093","fixation","","","img/fixation.png","null","","","test","","","","","","","","","","","","","","","","","","","",""
"155","","1703995","SARL_v65sf7npah","msl000093","freq","","","img/green_2bandit_a2.png","70","","70","test","1","","","square","circle","30","29","5","2","0.896551724137931","","","","","","","","","",""
"null","","1704644","SARL_v65sf7npah","msl000093","freq_resp","","","img/green_2bandit_a.png","70","img/green_2bandit_a.png","70","test","","","","","","","","","2","","","","","","","","","","",""
"null","","1704800","SARL_v65sf7npah","msl000093","fixation","","","img/fixation.png","null","","","test","","","","","","","","","","","","","","","","","","","",""
"275","","1705080","SARL_v65sf7npah","msl000093","freq","","","img/green_2bandit_a2.png","70","","70","test","1","","","square","circle","31","30","6","2","0.9","","","","","","","","","",""
"null","","1705610","SARL_v65sf7npah","msl000093","freq_resp","","","img/green_2bandit_a.png","70","img/green_2bandit_a.png","70","test","","","","","","","","","2","","","","","","","","","","",""
"null","","1705765","SARL_v65sf7npah","msl000093","fixation","","","img/fixation.png","null","","","test","","","","","","","","","","","","","","","","","","","",""
"287","","1706057","SARL_v65sf7npah","msl000093","freq","","","img/green_2bandit_a2.png","70","","70","test","1","","","square","circle","32","31","7","2","0.9032258064516129","","","","","","","","","",""
"null","","1706575","SARL_v65sf7npah","msl000093","freq_resp","","","img/green_2bandit_a.png","70","img/green_2bandit_a.png","70","test","","","","","","","","","2","","","","","","","","","","",""
"null","","1706731","SARL_v65sf7npah","msl000093","fixation","","","img/fixation.png","null","","","test","","","","","","","","","","","","","","","","","","","",""
"280","","1707016","SARL_v65sf7npah","msl000093","freq","","","img/green_2bandit_a2.png","70","","70","test","1","","","square","circle","33","32","8","2","0.90625","","","","","","","","","",""
"null","","1707542","SARL_v65sf7npah","msl000093","freq_resp","","","img/green_2bandit_a.png","70","img/green_2bandit_a.png","70","test","","","","","","","","","2","","","","","","","","","","",""
"null","","1707698","SARL_v65sf7npah","msl000093","fixation","","","img/fixation.png","null","","","test","","","","","","","","","","","","","","","","","","","",""
"226","","1707928","SARL_v65sf7npah","msl000093","freq","","","img/green_2bandit_a2.png","70","","70","test","1","","","square","circle","34","33","9","2","0.9090909090909091","","","","","","","","","",""
"null","","1708508","SARL_v65sf7npah","msl000093","freq_resp","","","img/green_2bandit_a.png","70","img/green_2bandit_a.png","70","test","","","","","","","","","2","","","","","","","","","","",""
"null","","1708662","SARL_v65sf7npah","msl000093","fixation","","","img/fixation.png","null","","","test","","","","","","","","","","","","","","","","","","","",""
"154","","1708821","SARL_v65sf7npah","msl000093","freq","","","img/green_2bandit_a2.png","70","","70","test","1","","","square","circle","35","34","10","2","0.9117647058823529","","","","","","","","","",""
"null","","1709473","SARL_v65sf7npah","msl000093","freq_resp","","","img/green_2bandit_a.png","70","img/green_2bandit_a.png","70","test","","","","","","","","","2","","","","","","","","","","",""
"null","","1709628","SARL_v65sf7npah","msl000093","fixation","","","img/fixation.png","null","","","test","","","","","","","","","","","","","","","","","","","",""
"203","","1709835","SARL_v65sf7npah","msl000093","freq","","","img/green_2bandit_a2.png","70","","70","test","1","","","square","circle","36","35","11","2","0.9142857142857143","","","","","","","","","",""
"null","","1710439","SARL_v65sf7npah","msl000093","freq_resp","","","img/green_2bandit_a.png","70","img/green_2bandit_a.png","70","test","","","","","","","","","2","","","","","","","","","","",""
"null","","1710594","SARL_v65sf7npah","msl000093","fixation","","","img/fixation.png","null","","","test","","","","","","","","","","","","","","","","","","","",""
"163","","1710763","SARL_v65sf7npah","msl000093","freq","","","img/green_2bandit_a2.png","70","","70","test","1","","","square","circle","37","36","12","2","0.9166666666666666","","","","","","","","","",""
"null","","1711407","SARL_v65sf7npah","msl000093","freq_resp","","","img/green_2bandit_a.png","70","img/green_2bandit_a.png","70","test","","","","","","","","","2","","","","","","","","","","",""
"null","","1711562","SARL_v65sf7npah","msl000093","fixation","","","img/fixation.png","null","","","test","","","","","","","","","","","","","","","","","","","",""
"134","","1711701","SARL_v65sf7npah","msl000093","freq","","","img/green_2bandit_a2.png","70","","70","test","1","","","square","circle","38","37","13","2","0.918918918918919","","","","","","","","","",""
"null","","1712373","SARL_v65sf7npah","msl000093","freq_resp","","","img/green_2bandit_a.png","70","img/green_2bandit_a.png","70","test","","","","","","","","","2","","","","","","","","","","",""
"null","","1712528","SARL_v65sf7npah","msl000093","fixation","","","img/fixation.png","null","","","test","","","","","","","","","","","","","","","","","","","",""
"148","","1712681","SARL_v65sf7npah","msl000093","freq","","","img/green_2bandit_a2.png","70","","70","test","1","","","square","circle","39","38","14","2","0.9210526315789473","","","","","","","","","",""
"null","","1713339","SARL_v65sf7npah","msl000093","freq_resp","","","img/green_2bandit_a.png","70","img/green_2bandit_a.png","70","test","","","","","","","","","2","","","","","","","","","","",""
"null","","1713496","SARL_v65sf7npah","msl000093","fixation","","","img/fixation.png","null","","","test","","","","","","","","","","","","","","","","","","","",""
"147","","1713648","SARL_v65sf7npah","msl000093","freq","","","img/green_2bandit_a2.png","70","","70","test","1","","","square","circle","40","39","15","2","0.9230769230769231","","","","","","","","","",""
"null","","1714307","SARL_v65sf7npah","msl000093","freq_resp","","","img/green_2bandit_a.png","70","img/green_2bandit_a.png","70","test","","","","","","","","","2","","","","","","","","","","",""
"null","","1714462","SARL_v65sf7npah","msl000093","fixation","","","img/fixation.png","null","","","test","","","","","","","","","","","","","","","","","","","",""
"143","","1714610","SARL_v65sf7npah","msl000093","freq","","","img/green_2bandit_a2.png","70","","70","test","1","","","square","circle","41","40","16","2","0.925","","","","","","","","","",""
"null","","1715272","SARL_v65sf7npah","msl000093","freq_resp","","","img/green_2bandit_a.png","70","img/green_2bandit_a.png","70","test","","","","","","","","","2","","","","","","","","","","",""
"null","","1715428","SARL_v65sf7npah","msl000093","fixation","","","img/fixation.png","null","","","test","","","","","","","","","","","","","","","","","","","",""
"260","","1715694","SARL_v65sf7npah","msl000093","freq","","","img/green_2bandit_a2.png","70","","70","test","1","","","square","circle","42","41","17","2","0.926829268292683","","","","","","","","","",""
"null","","1716239","SARL_v65sf7npah","msl000093","freq_resp","","","img/green_2bandit_a.png","70","img/green_2bandit_a.png","70","test","","","","","","","","","2","","","","","","","","","","",""
"null","","1716395","SARL_v65sf7npah","msl000093","fixation","","","img/fixation.png","null","","","test","","","","","","","","","","","","","","","","","","","",""
"108","","1716509","SARL_v65sf7npah","msl000093","freq","","","img/green_2bandit_a2.png","70","","70","test","1","","","square","circle","43","42","18","2","0.9285714285714286","","","","","","","","","",""
"null","","1717205","SARL_v65sf7npah","msl000093","freq_resp","","","img/green_2bandit_a.png","70","img/green_2bandit_a.png","70","test","","","","","","","","","2","","","","","","","","","","",""
"null","","1717361","SARL_v65sf7npah","msl000093","fixation","","","img/fixation.png","null","","","test","","","","","","","","","","","","","","","","","","","",""
"108","","1717473","SARL_v65sf7npah","msl000093","infreq","","","img/orange_2bandit_a2.png","70","","68","test","0","","","square","circle","44","43","19","2","0.9069767441860465","","","","","","","","","",""
"null","","1718171","SARL_v65sf7npah","msl000093","infreq_resp","","","img/orange_2bandit_a.png","70","img/orange_2bandit_a.png","68","test","","","","","","","","","2","","","","","","","","","","",""
"null","","1718326","SARL_v65sf7npah","msl000093","fixation","","","img/fixation.png","null","","","test","","","","","","","","","","","","","","","","","","","",""
"475","","1718805","SARL_v65sf7npah","msl000093","freq","","","img/green_2bandit_a2.png","70","","70","test","1","","","square","circle","45","44","20","2","0.9090909090909091","","","","","","","","","",""
"null","","1719137","SARL_v65sf7npah","msl000093","freq_resp","","","img/green_2bandit_a.png","70","img/green_2bandit_a.png","70","test","","","","","","","","","2","","","","","","","","","","",""
"null","","1719292","SARL_v65sf7npah","msl000093","fixation","","","img/fixation.png","null","","","test","","","","","","","","","","","","","","","","","","","",""
"268","","1719564","SARL_v65sf7npah","msl000093","freq","","","img/green_2bandit_a2.png","70","","70","test","1","","","square","circle","46","45","21","2","0.9111111111111111","","","","","","","","","",""
"null","","1720102","SARL_v65sf7npah","msl000093","freq_resp","","","img/green_2bandit_a.png","70","img/green_2bandit_a.png","70","test","","","","","","","","","2","","","","","","","","","","",""
"null","","1720258","SARL_v65sf7npah","msl000093","fixation","","","img/fixation.png","null","","","test","","","","","","","","","","","","","","","","","","","",""
"222","","1720483","SARL_v65sf7npah","msl000093","freq","","","img/green_2bandit_a2.png","70","","70","test","1","","","square","circle","47","46","22","2","0.9130434782608695","","","","","","","","","",""
"null","","1721068","SARL_v65sf7npah","msl000093","freq_resp","","","img/green_2bandit_a.png","70","img/green_2bandit_a.png","70","test","","","","","","","","","2","","","","","","","","","","",""
"null","","1721223","SARL_v65sf7npah","msl000093","fixation","","","img/fixation.png","null","","","test","","","","","","","","","","","","","","","","","","","",""
"96","","1721323","SARL_v65sf7npah","msl000093","freq","","","img/green_2bandit_a2.png","70","","70","test","1","","","square","circle","48","47","23","2","0.9148936170212766","","","","","","","","","",""
"null","","1722033","SARL_v65sf7npah","msl000093","freq_resp","","","img/green_2bandit_a.png","70","img/green_2bandit_a.png","70","test","","","","","","","","","2","","","","","","","","","","",""
"null","","1722189","SARL_v65sf7npah","msl000093","fixation","","","img/fixation.png","null","","","test","","","","","","","","","","","","","","","","","","","",""
"85","","1722279","SARL_v65sf7npah","msl000093","infreq","","","img/orange_2bandit_a2.png","70","","68","test","0","","","square","circle","49","48","24","2","0.8958333333333334","","","","","","","","","",""
"null","","1723001","SARL_v65sf7npah","msl000093","infreq_resp","","","img/orange_2bandit_a.png","70","img/orange_2bandit_a.png","68","test","","","","","","","","","2","","","","","","","","","","",""
"null","","1723156","SARL_v65sf7npah","msl000093","fixation","","","img/fixation.png","null","","","test","","","","","","","","","","","","","","","","","","","",""
"352","","1723513","SARL_v65sf7npah","msl000093","freq","","","img/green_2bandit_a2.png","70","","70","test","1","","","square","circle","50","49","25","2","0.8979591836734694","","","","","","","","","",""
"null","","1723967","SARL_v65sf7npah","msl000093","freq_resp","","","img/green_2bandit_a.png","70","img/green_2bandit_a.png","70","test","","","","","","","","","2","","","","","","","","","","",""
"null","","1724122","SARL_v65sf7npah","msl000093","fixation","","","img/fixation.png","null","","","test","","","","","","","","","","","","","","","","","","","",""
"291","","1724417","SARL_v65sf7npah","msl000093","freq","","","img/green_2bandit_a2.png","70","","70","test","1","","","square","circle","51","50","26","2","0.9","","","","","","","","","",""
"null","","1724933","SARL_v65sf7npah","msl000093","freq_resp","","","img/green_2bandit_a.png","70","img/green_2bandit_a.png","70","test","","","","","","","","","2","","","","","","","","","","",""
"null","","1725089","SARL_v65sf7npah","msl000093","fixation","","","img/fixation.png","null","","","test","","","","","","","","","","","","","","","","","","","",""
"633","","1725727","SARL_v65sf7npah","msl000093","rl","","","img/black_2bandit_a2.png","74","","0","test","","","0","square","circle","52","","0","2","","74","0.8","0.2","0.7631825354742539","0.2","0.8","0.2","square","2","0"
"null","","1726483","SARL_v65sf7npah","msl000093","feedback","","","img/boo_L_a.png","null","","na","test","","","","","","","","","2","","74","0.8","0.2","","","","0.2","","2",""
"459","","1726946","SARL_v65sf7npah","msl000093","freq","","","img/green_2bandit_a2.png","70","","70","test","1","","","square","circle","53","51","1","3","0.9019607843137255","","","","","","","","","",""
"null","","1727292","SARL_v65sf7npah","msl000093","freq_resp","","","img/green_2bandit_a.png","70","img/green_2bandit_a.png","70","test","","","","","","","","","3","","","","","","","","","","",""
"null","","1727449","SARL_v65sf7npah","msl000093","fixation","","","img/fixation.png","null","","","test","","","","","","","","","","","","","","","","","","","",""
"382","","1727835","SARL_v65sf7npah","msl000093","freq","","","img/green_2bandit_a2.png","70","","70","test","1","","","square","circle","54","52","2","3","0.9038461538461539","","","","","","","","","",""
"null","","1728258","SARL_v65sf7npah","msl000093","freq_resp","","","img/green_2bandit_a.png","70","img/green_2bandit_a.png","70","test","","","","","","","","","3","","","","","","","","","","",""
"null","","1728413","SARL_v65sf7npah","msl000093","fixation","","","img/fixation.png","null","","","test","","","","","","","","","","","","","","","","","","","",""
"259","","1728677","SARL_v65sf7npah","msl000093","freq","","","img/green_2bandit_a2.png","70","","70","test","1","","","square","circle","55","53","3","3","0.9056603773584906","","","","","","","","","",""
"null","","1729224","SARL_v65sf7npah","msl000093","freq_resp","","","img/green_2bandit_a.png","70","img/green_2bandit_a.png","70","test","","","","","","","","","3","","","","","","","","","","",""
"null","","1729380","SARL_v65sf7npah","msl000093","fixation","","","img/fixation.png","null","","","test","","","","","","","","","","","","","","","","","","","",""
"176","","1729561","SARL_v65sf7npah","msl000093","freq","","","img/green_2bandit_a2.png","70","","70","test","1","","","square","circle","56","54","4","3","0.9074074074074074","","","","","","","","","",""
"null","","1730190","SARL_v65sf7npah","msl000093","freq_resp","","","img/green_2bandit_a.png","70","img/green_2bandit_a.png","70","test","","","","","","","","","3","","","","","","","","","","",""
"null","","1730345","SARL_v65sf7npah","msl000093","fixation","","","img/fixation.png","null","","","test","","","","","","","","","","","","","","","","","","","",""
"120","","1730470","SARL_v65sf7npah","msl000093","freq","","","img/green_2bandit_a2.png","70","","70","test","1","","","square","circle","57","55","5","3","0.9090909090909091","","","","","","","","","",""
"null","","1731155","SARL_v65sf7npah","msl000093","freq_resp","","","img/green_2bandit_a.png","70","img/green_2bandit_a.png","70","test","","","","","","","","","3","","","","","","","","","","",""
"null","","1731312","SARL_v65sf7npah","msl000093","fixation","","","img/fixation.png","null","","","test","","","","","","","","","","","","","","","","","","","",""
"90","","1731406","SARL_v65sf7npah","msl000093","freq","","","img/green_2bandit_a2.png","70","","70","test","1","","","square","circle","58","56","6","3","0.9107142857142857","","","","","","","","","",""
"null","","1732123","SARL_v65sf7npah","msl000093","freq_resp","","","img/green_2bandit_a.png","70","img/green_2bandit_a.png","70","test","","","","","","","","","3","","","","","","","","","","",""
"null","","1732277","SARL_v65sf7npah","msl000093","fixation","","","img/fixation.png","null","","","test","","","","","","","","","","","","","","","","","","","",""
"85","","1732366","SARL_v65sf7npah","msl000093","freq","","","img/green_2bandit_a2.png","70","","70","test","1","","","square","circle","59","57","7","3","0.9122807017543859","","","","","","","","","",""
"null","","1733087","SARL_v65sf7npah","msl000093","freq_resp","","","img/green_2bandit_a.png","70","img/green_2bandit_a.png","70","test","","","","","","","","","3","","","","","","","","","","",""
"null","","1733242","SARL_v65sf7npah","msl000093","fixation","","","img/fixation.png","null","","","test","","","","","","","","","","","","","","","","","","","",""
"68","","1733314","SARL_v65sf7npah","msl000093","freq","","","img/green_2bandit_a2.png","70","","70","test","1","","","square","circle","60","58","8","3","0.9137931034482759","","","","","","","","","",""
"null","","1734052","SARL_v65sf7npah","msl000093","freq_resp","","","img/green_2bandit_a.png","70","img/green_2bandit_a.png","70","test","","","","","","","","","3","","","","","","","","","","",""
"null","","1734207","SARL_v65sf7npah","msl000093","fixation","","","img/fixation.png","null","","","test","","","","","","","","","","","","","","","","","","","",""
"69","","1734281","SARL_v65sf7npah","msl000093","freq","","","img/green_2bandit_a2.png","70","","70","test","1","","","square","circle","61","59","9","3","0.9152542372881356","","","","","","","","","",""
"null","","1735018","SARL_v65sf7npah","msl000093","freq_resp","","","img/green_2bandit_a.png","70","img/green_2bandit_a.png","70","test","","","","","","","","","3","","","","","","","","","","",""
"null","","1735175","SARL_v65sf7npah","msl000093","fixation","","","img/fixation.png","null","","","test","","","","","","","","","","","","","","","","","","","",""
"52","","1735231","SARL_v65sf7npah","msl000093","freq","","","img/green_2bandit_a2.png","70","","70","test","1","","","square","circle","62","60","10","3","0.9166666666666666","","","","","","","","","",""
"null","","1735984","SARL_v65sf7npah","msl000093","freq_resp","","","img/green_2bandit_a.png","70","img/green_2bandit_a.png","70","test","","","","","","","","","3","","","","","","","","","","",""
"null","","1736140","SARL_v65sf7npah","msl000093","fixation","","","img/fixation.png","null","","","test","","","","","","","","","","","","","","","","","","","",""
"60","","1736205","SARL_v65sf7npah","msl000093","freq","","","img/green_2bandit_a2.png","70","","70","test","1","","","square","circle","63","61","11","3","0.9180327868852459","","","","","","","","","",""
"null","","1736951","SARL_v65sf7npah","msl000093","freq_resp","","","img/green_2bandit_a.png","70","img/green_2bandit_a.png","70","test","","","","","","","","","3","","","","","","","","","","",""
"null","","1737107","SARL_v65sf7npah","msl000093","fixation","","","img/fixation.png","null","","","test","","","","","","","","","","","","","","","","","","","",""
"60","","1737171","SARL_v65sf7npah","msl000093","infreq","","","img/orange_2bandit_a2.png","70","","68","test","0","","","square","circle","64","62","12","3","0.9032258064516129","","","","","","","","","",""
"null","","1737918","SARL_v65sf7npah","msl000093","infreq_resp","","","img/orange_2bandit_a.png","70","img/orange_2bandit_a.png","68","test","","","","","","","","","3","","","","","","","","","","",""
"null","","1738072","SARL_v65sf7npah","msl000093","fixation","","","img/fixation.png","null","","","test","","","","","","","","","","","","","","","","","","","",""
"305","","1738381","SARL_v65sf7npah","msl000093","freq","","","img/green_2bandit_a2.png","70","","70","test","1","","","square","circle","65","63","13","3","0.9047619047619048","","","","","","","","","",""
"null","","1738882","SARL_v65sf7npah","msl000093","freq_resp","","","img/green_2bandit_a.png","70","img/green_2bandit_a.png","70","test","","","","","","","","","3","","","","","","","","","","",""
"null","","1739038","SARL_v65sf7npah","msl000093","fixation","","","img/fixation.png","null","","","test","","","","","","","","","","","","","","","","","","","",""
"347","","1739390","SARL_v65sf7npah","msl000093","freq","","","img/green_2bandit_a2.png","70","","70","test","1","","","square","circle","66","64","14","3","0.90625","","","","","","","","","",""
"null","","1739848","SARL_v65sf7npah","msl000093","freq_resp","","","img/green_2bandit_a.png","70","img/green_2bandit_a.png","70","test","","","","","","","","","3","","","","","","","","","","",""
"null","","1740003","SARL_v65sf7npah","msl000093","fixation","","","img/fixation.png","null","","","test","","","","","","","","","","","","","","","","","","","",""
"316","","1740323","SARL_v65sf7npah","msl000093","freq","","","img/green_2bandit_a2.png","70","","70","test","1","","","square","circle","67","65","15","3","0.9076923076923077","","","","","","","","","",""
"null","","1740813","SARL_v65sf7npah","msl000093","freq_resp","","","img/green_2bandit_a.png","70","img/green_2bandit_a.png","70","test","","","","","","","","","3","","","","","","","","","","",""
"null","","1740968","SARL_v65sf7npah","msl000093","fixation","","","img/fixation.png","null","","","test","","","","","","","","","","","","","","","","","","","",""
"212","","1741187","SARL_v65sf7npah","msl000093","freq","","","img/green_2bandit_a2.png","70","","70","test","1","","","square","circle","68","66","16","3","0.9090909090909091","","","","","","","","","",""
"null","","1741780","SARL_v65sf7npah","msl000093","freq_resp","","","img/green_2bandit_a.png","70","img/green_2bandit_a.png","70","test","","","","","","","","","3","","","","","","","","","","",""
"null","","1741936","SARL_v65sf7npah","msl000093","fixation","","","img/fixation.png","null","","","test","","","","","","","","","","","","","","","","","","","",""
"89","","1742028","SARL_v65sf7npah","msl000093","freq","","","img/green_2bandit_a2.png","70","","70","test","1","","","square","circle","69","67","17","3","0.9104477611940298","","","","","","","","","",""
"null","","1742745","SARL_v65sf7npah","msl000093","freq_resp","","","img/green_2bandit_a.png","70","img/green_2bandit_a.png","70","test","","","","","","","","","3","","","","","","","","","","",""
"null","","1742900","SARL_v65sf7npah","msl000093","fixation","","","img/fixation.png","null","","","test","","","","","","","","","","","","","","","","","","","",""
"83","","1742987","SARL_v65sf7npah","msl000093","infreq","","","img/orange_2bandit_a2.png","70","","68","test","0","","","square","circle","70","68","18","3","0.8970588235294118","","","","","","","","","",""
"null","","1743711","SARL_v65sf7npah","msl000093","infreq_resp","","","img/orange_2bandit_a.png","70","img/orange_2bandit_a.png","68","test","","","","","","","","","3","","","","","","","","","","",""
"null","","1743866","SARL_v65sf7npah","msl000093","fixation","","","img/fixation.png","null","","","test","","","","","","","","","","","","","","","","","","","",""
"338","","1744208","SARL_v65sf7npah","msl000093","freq","","","img/green_2bandit_a2.png","70","","70","test","1","","","square","circle","71","69","19","3","0.8985507246376812","","","","","","","","","",""
"null","","1744676","SARL_v65sf7npah","msl000093","freq_resp","","","img/green_2bandit_a.png","70","img/green_2bandit_a.png","70","test","","","","","","","","","3","","","","","","","","","","",""
"null","","1744832","SARL_v65sf7npah","msl000093","fixation","","","img/fixation.png","null","","","test","","","","","","","","","","","","","","","","","","","",""
"285","","1745122","SARL_v65sf7npah","msl000093","freq","","","img/green_2bandit_a2.png","70","","70","test","1","","","square","circle","72","70","20","3","0.9","","","","","","","","","",""
"null","","1745642","SARL_v65sf7npah","msl000093","freq_resp","","","img/green_2bandit_a.png","70","img/green_2bandit_a.png","70","test","","","","","","","","","3","","","","","","","","","","",""
"null","","1745798","SARL_v65sf7npah","msl000093","fixation","","","img/fixation.png","null","","","test","","","","","","","","","","","","","","","","","","","",""
"235","","1746038","SARL_v65sf7npah","msl000093","freq","","","img/green_2bandit_a2.png","70","","70","test","1","","","square","circle","73","71","21","3","0.9014084507042254","","","","","","","","","",""
"null","","1746609","SARL_v65sf7npah","msl000093","freq_resp","","","img/green_2bandit_a.png","70","img/green_2bandit_a.png","70","test","","","","","","","","","3","","","","","","","","","","",""
"null","","1746767","SARL_v65sf7npah","msl000093","fixation","","","img/fixation.png","null","","","test","","","","","","","","","","","","","","","","","","","",""
"85","","1746857","SARL_v65sf7npah","msl000093","freq","","","img/green_2bandit_a2.png","70","","70","test","1","","","square","circle","74","72","22","3","0.9027777777777778","","","","","","","","","",""
"null","","1747577","SARL_v65sf7npah","msl000093","freq_resp","","","img/green_2bandit_a.png","70","img/green_2bandit_a.png","70","test","","","","","","","","","3","","","","","","","","","","",""
"null","","1747735","SARL_v65sf7npah","msl000093","fixation","","","img/fixation.png","null","","","test","","","","","","","","","","","","","","","","","","","",""
"232","","1747971","SARL_v65sf7npah","msl000093","freq","","","img/green_2bandit_a2.png","70","","70","test","1","","","square","circle","75","73","23","3","0.9041095890410958","","","","","","","","","",""
"null","","1748544","SARL_v65sf7npah","msl000093","freq_resp","","","img/green_2bandit_a.png","70","img/green_2bandit_a.png","70","test","","","","","","","","","3","","","","","","","","","","",""
"null","","1748699","SARL_v65sf7npah","msl000093","fixation","","","img/fixation.png","null","","","test","","","","","","","","","","","","","","","","","","","",""
"265","","1748968","SARL_v65sf7npah","msl000093","freq","","","img/green_2bandit_a2.png","70","","70","test","1","","","square","circle","76","74","24","3","0.9054054054054054","","","","","","","","","",""
"null","","1749510","SARL_v65sf7npah","msl000093","freq_resp","","","img/green_2bandit_a.png","70","img/green_2bandit_a.png","70","test","","","","","","","","","3","","","","","","","","","","",""
"null","","1749666","SARL_v65sf7npah","msl000093","fixation","","","img/fixation.png","null","","","test","","","","","","","","","","","","","","","","","","","",""
"232","","1749901","SARL_v65sf7npah","msl000093","infreq","","","img/orange_2bandit_a2.png","70","","68","test","0","","","square","circle","77","75","25","3","0.8933333333333333","","","","","","","","","",""
"null","","1750477","SARL_v65sf7npah","msl000093","infreq_resp","","","img/orange_2bandit_a.png","70","img/orange_2bandit_a.png","68","test","","","","","","","","","3","","","","","","","","","","",""
"null","","1750632","SARL_v65sf7npah","msl000093","fixation","","","img/fixation.png","null","","","test","","","","","","","","","","","","","","","","","","","",""
"317","","1750952","SARL_v65sf7npah","msl000093","freq","","","img/green_2bandit_a2.png","70","","70","test","1","","","square","circle","78","76","26","3","0.8947368421052632","","","","","","","","","",""
"null","","1751442","SARL_v65sf7npah","msl000093","freq_resp","","","img/green_2bandit_a.png","70","img/green_2bandit_a.png","70","test","","","","","","","","","3","","","","","","","","","","",""
"null","","1751598","SARL_v65sf7npah","msl000093","fixation","","","img/fixation.png","null","","","test","","","","","","","","","","","","","","","","","","","",""
"306","","1751908","SARL_v65sf7npah","msl000093","freq","","","img/green_2bandit_a2.png","70","","70","test","1","","","square","circle","79","77","27","3","0.8961038961038961","","","","","","","","","",""
"null","","1752409","SARL_v65sf7npah","msl000093","freq_resp","","","img/green_2bandit_a.png","70","img/green_2bandit_a.png","70","test","","","","","","","","","3","","","","","","","","","","",""
"null","","1752564","SARL_v65sf7npah","msl000093","fixation","","","img/fixation.png","null","","","test","","","","","","","","","","","","","","","","","","","",""
"885","","1753455","SARL_v65sf7npah","msl000093","rl","","","img/black_2bandit_a2.png","75","","0","test","","","1","square","circle","80","","0","3","","75","0.8","0.2","0.6278419703458971","0.2","0.8","0.8","circle","3","0"
"null","","1754211","SARL_v65sf7npah","msl000093","feedback","","","img/yay_R_a.png","null","","na","test","","","","","","","","","3","","75","0.8","0.2","","","","0.8","","3",""
"504","","1754719","SARL_v65sf7npah","msl000093","freq","","","img/green_2bandit_a2.png","68","","70","test","0","","","square","circle","81","78","1","4","0.8846153846153846","","","","","","","","","",""
"null","","1755020","SARL_v65sf7npah","msl000093","freq_resp","","","img/green_2bandit_a.png","68","img/green_2bandit_a.png","70","test","","","","","","","","","4","","","","","","","","","","",""
"null","","1755175","SARL_v65sf7npah","msl000093","fixation","","","img/fixation.png","null","","","test","","","","","","","","","","","","","","","","","","","",""
"null","","1755981","SARL_v65sf7npah","msl000093","freq","","","img/green_2bandit_a2.png","null","","70","test","0","","","square","circle","82","79","2","4","0.8734177215189873","","","","","","","","","",""
"null","","1756137","SARL_v65sf7npah","msl000093","fixation","","","img/fixation.png","null","","","test","","","","","","","","","","","","","","","","","","","",""
"495","","1756635","SARL_v65sf7npah","msl000093","freq","","","img/green_2bandit_a2.png","70","","70","test","1","","","square","circle","83","80","3","4","0.875","","","","","","","","","",""
"null","","1756946","SARL_v65sf7npah","msl000093","freq_resp","","","img/green_2bandit_a.png","70","img/green_2bandit_a.png","70","test","","","","","","","","","4","","","","","","","","","","",""
"null","","1757103","SARL_v65sf7npah","msl000093","fixation","","","img/fixation.png","null","","","test","","","","","","","","","","","","","","","","","","","",""
"320","","1757428","SARL_v65sf7npah","msl000093","freq","","","img/green_2bandit_a2.png","70","","70","test","1","","","square","circle","84","81","4","4","0.8765432098765432","","","","","","","","","",""
"null","","1757914","SARL_v65sf7npah","msl000093","freq_resp","","","img/green_2bandit_a.png","70","img/green_2bandit_a.png","70","test","","","","","","","","","4","","","","","","","","","","",""
"null","","1758070","SARL_v65sf7npah","msl000093","fixation","","","img/fixation.png","null","","","test","","","","","","","","","","","","","","","","","","","",""
"443","","1758518","SARL_v65sf7npah","msl000093","infreq","","","img/orange_2bandit_a2.png","68","","68","test","1","","","square","circle","85","82","5","4","0.8780487804878049","","","","","","","","","",""
"null","","1758881","SARL_v65sf7npah","msl000093","infreq_resp","","","img/orange_2bandit_a.png","68","img/orange_2bandit_a.png","68","test","","","","","","","","","4","","","","","","","","","","",""
"null","","1759036","SARL_v65sf7npah","msl000093","fixation","","","img/fixation.png","null","","","test","","","","","","","","","","","","","","","","","","","",""
"385","","1759425","SARL_v65sf7npah","msl000093","freq","","","img/green_2bandit_a2.png","70","","70","test","1","","","square","circle","86","83","6","4","0.8795180722891566","","","","","","","","","",""
"null","","1759846","SARL_v65sf7npah","msl000093","freq_resp","","","img/green_2bandit_a.png","70","img/green_2bandit_a.png","70","test","","","","","","","","","4","","","","","","","","","","",""
"null","","1760002","SARL_v65sf7npah","msl000093","fixation","","","img/fixation.png","null","","","test","","","","","","","","","","","","","","","","","","","",""
"405","","1760411","SARL_v65sf7npah","msl000093","freq","","","img/green_2bandit_a2.png","70","","70","test","1","","","square","circle","87","84","7","4","0.8809523809523809","","","","","","","","","",""
"null","","1760812","SARL_v65sf7npah","msl000093","freq_resp","","","img/green_2bandit_a.png","70","img/green_2bandit_a.png","70","test","","","","","","","","","4","","","","","","","","","","",""
"null","","1760968","SARL_v65sf7npah","msl000093","fixation","","","img/fixation.png","null","","","test","","","","","","","","","","","","","","","","","","","",""
"293","","1761267","SARL_v65sf7npah","msl000093","freq","","","img/green_2bandit_a2.png","70","","70","test","1","","","square","circle","88","85","8","4","0.8823529411764706","","","","","","","","","",""
"null","","1761779","SARL_v65sf7npah","msl000093","freq_resp","","","img/green_2bandit_a.png","70","img/green_2bandit_a.png","70","test","","","","","","","","","4","","","","","","","","","","",""
"null","","1761934","SARL_v65sf7npah","msl000093","fixation","","","img/fixation.png","null","","","test","","","","","","","","","","","","","","","","","","","",""
"319","","1762258","SARL_v65sf7npah","msl000093","freq","","","img/green_2bandit_a2.png","70","","70","test","1","","","square","circle","89","86","9","4","0.8837209302325582","","","","","","","","","",""
"null","","1762745","SARL_v65sf7npah","msl000093","freq_resp","","","img/green_2bandit_a.png","70","img/green_2bandit_a.png","70","test","","","","","","","","","4","","","","","","","","","","",""
"null","","1762900","SARL_v65sf7npah","msl000093","fixation","","","img/fixation.png","null","","","test","","","","","","","","","","","","","","","","","","","",""
"321","","1763226","SARL_v65sf7npah","msl000093","freq","","","img/green_2bandit_a2.png","70","","70","test","1","","","square","circle","90","87","10","4","0.8850574712643678","","","","","","","","","",""
"null","","1763711","SARL_v65sf7npah","msl000093","freq_resp","","","img/green_2bandit_a.png","70","img/green_2bandit_a.png","70","test","","","","","","","","","4","","","","","","","","","","",""
"null","","1763866","SARL_v65sf7npah","msl000093","fixation","","","img/fixation.png","null","","","test","","","","","","","","","","","","","","","","","","","",""
"281","","1764152","SARL_v65sf7npah","msl000093","freq","","","img/green_2bandit_a2.png","70","","70","test","1","","","square","circle","91","88","11","4","0.8863636363636364","","","","","","","","","",""
"null","","1764677","SARL_v65sf7npah","msl000093","freq_resp","","","img/green_2bandit_a.png","70","img/green_2bandit_a.png","70","test","","","","","","","","","4","","","","","","","","","","",""
"null","","1764833","SARL_v65sf7npah","msl000093","fixation","","","img/fixation.png","null","","","test","","","","","","","","","","","","","","","","","","","",""
"208","","1765045","SARL_v65sf7npah","msl000093","freq","","","img/green_2bandit_a2.png","70","","70","test","1","","","square","circle","92","89","12","4","0.8876404494382022","","","","","","","","","",""
"null","","1765643","SARL_v65sf7npah","msl000093","freq_resp","","","img/green_2bandit_a.png","70","img/green_2bandit_a.png","70","test","","","","","","","","","4","","","","","","","","","","",""
"null","","1765798","SARL_v65sf7npah","msl000093","fixation","","","img/fixation.png","null","","","test","","","","","","","","","","","","","","","","","","","",""
"173","","1765976","SARL_v65sf7npah","msl000093","freq","","","img/green_2bandit_a2.png","70","","70","test","1","","","square","circle","93","90","13","4","0.8888888888888888","","","","","","","","","",""
"null","","1766609","SARL_v65sf7npah","msl000093","freq_resp","","","img/green_2bandit_a.png","70","img/green_2bandit_a.png","70","test","","","","","","","","","4","","","","","","","","","","",""
"null","","1766766","SARL_v65sf7npah","msl000093","fixation","","","img/fixation.png","null","","","test","","","","","","","","","","","","","","","","","","","",""
"107","","1766878","SARL_v65sf7npah","msl000093","freq","","","img/green_2bandit_a2.png","70","","70","test","1","","","square","circle","94","91","14","4","0.8901098901098901","","","","","","","","","",""
"null","","1767576","SARL_v65sf7npah","msl000093","freq_resp","","","img/green_2bandit_a.png","70","img/green_2bandit_a.png","70","test","","","","","","","","","4","","","","","","","","","","",""
"null","","1767732","SARL_v65sf7npah","msl000093","fixation","","","img/fixation.png","null","","","test","","","","","","","","","","","","","","","","","","","",""
"410","","1768148","SARL_v65sf7npah","msl000093","infreq","","","img/orange_2bandit_a2.png","68","","68","test","1","","","square","circle","95","92","15","4","0.8913043478260869","","","","","","","","","",""
"null","","1768544","SARL_v65sf7npah","msl000093","infreq_resp","","","img/orange_2bandit_a.png","68","img/orange_2bandit_a.png","68","test","","","","","","","","","4","","","","","","","","","","",""
"null","","1768699","SARL_v65sf7npah","msl000093","fixation","","","img/fixation.png","null","","","test","","","","","","","","","","","","","","","","","","","",""
"440","","1769146","SARL_v65sf7npah","msl000093","freq","","","img/green_2bandit_a2.png","70","","70","test","1","","","square","circle","96","93","16","4","0.8924731182795699","","","","","","","","","",""
"null","","1769511","SARL_v65sf7npah","msl000093","freq_resp","","","img/green_2bandit_a.png","70","img/green_2bandit_a.png","70","test","","","","","","","","","4","","","","","","","","","","",""
"null","","1769668","SARL_v65sf7npah","msl000093","fixation","","","img/fixation.png","null","","","test","","","","","","","","","","","","","","","","","","","",""
"330","","1770004","SARL_v65sf7npah","msl000093","freq","","","img/green_2bandit_a2.png","70","","70","test","1","","","square","circle","97","94","17","4","0.8936170212765957","","","","","","","","","",""
"null","","1770479","SARL_v65sf7npah","msl000093","freq_resp","","","img/green_2bandit_a.png","70","img/green_2bandit_a.png","70","test","","","","","","","","","4","","","","","","","","","","",""
"null","","1770635","SARL_v65sf7npah","msl000093","fixation","","","img/fixation.png","null","","","test","","","","","","","","","","","","","","","","","","","",""
"317","","1770957","SARL_v65sf7npah","msl000093","freq","","","img/green_2bandit_a2.png","70","","70","test","1","","","square","circle","98","95","18","4","0.8947368421052632","","","","","","","","","",""
"null","","1771446","SARL_v65sf7npah","msl000093","freq_resp","","","img/green_2bandit_a.png","70","img/green_2bandit_a.png","70","test","","","","","","","","","4","","","","","","","","","","",""
"null","","1771601","SARL_v65sf7npah","msl000093","fixation","","","img/fixation.png","null","","","test","","","","","","","","","","","","","","","","","","","",""
"289","","1771896","SARL_v65sf7npah","msl000093","freq","","","img/green_2bandit_a2.png","70","","70","test","1","","","square","circle","99","96","19","4","0.8958333333333334","","","","","","","","","",""
"null","","1772413","SARL_v65sf7npah","msl000093","freq_resp","","","img/green_2bandit_a.png","70","img/green_2bandit_a.png","70","test","","","","","","","","","4","","","","","","","","","","",""
"null","","1772569","SARL_v65sf7npah","msl000093","fixation","","","img/fixation.png","null","","","test","","","","","","","","","","","","","","","","","","","",""
"336","","1772909","SARL_v65sf7npah","msl000093","freq","","","img/green_2bandit_a2.png","70","","70","test","1","","","square","circle","100","97","20","4","0.8969072164948454","","","","","","","","","",""
"null","","1773377","SARL_v65sf7npah","msl000093","freq_resp","","","img/green_2bandit_a.png","70","img/green_2bandit_a.png","70","test","","","","","","","","","4","","","","","","","","","","",""
"null","","1773531","SARL_v65sf7npah","msl000093","fixation","","","img/fixation.png","null","","","test","","","","","","","","","","","","","","","","","","","",""
"225","","1773761","SARL_v65sf7npah","msl000093","freq","","","img/green_2bandit_a2.png","70","","70","test","1","","","square","circle","101","98","21","4","0.8979591836734694","","","","","","","","","",""
"null","","1774342","SARL_v65sf7npah","msl000093","freq_resp","","","img/green_2bandit_a.png","70","img/green_2bandit_a.png","70","test","","","","","","","","","4","","","","","","","","","","",""
"null","","1774497","SARL_v65sf7npah","msl000093","fixation","","","img/fixation.png","null","","","test","","","","","","","","","","","","","","","","","","","",""
"443","","1774945","SARL_v65sf7npah","msl000093","freq","","","img/green_2bandit_a2.png","70","","70","test","1","","","square","circle","102","99","22","4","0.898989898989899","","","","","","","","","",""
"null","","1775307","SARL_v65sf7npah","msl000093","freq_resp","","","img/green_2bandit_a.png","70","img/green_2bandit_a.png","70","test","","","","","","","","","4","","","","","","","","","","",""
"null","","1775464","SARL_v65sf7npah","msl000093","fixation","","","img/fixation.png","null","","","test","","","","","","","","","","","","","","","","","","","",""
"380","","1775848","SARL_v65sf7npah","msl000093","freq","","","img/green_2bandit_a2.png","70","","70","test","1","","","square","circle","103","100","23","4","0.9","","","","","","","","","",""
"null","","1776274","SARL_v65sf7npah","msl000093","freq_resp","","","img/green_2bandit_a.png","70","img/green_2bandit_a.png","70","test","","","","","","","","","4","","","","","","","","","","",""
"null","","1776428","SARL_v65sf7npah","msl000093","fixation","","","img/fixation.png","null","","","test","","","","","","","","","","","","","","","","","","","",""
"362","","1776796","SARL_v65sf7npah","msl000093","freq","","","img/green_2bandit_a2.png","70","","70","test","1","","","square","circle","104","101","24","4","0.900990099009901","","","","","","","","","",""
"null","","1777239","SARL_v65sf7npah","msl000093","freq_resp","","","img/green_2bandit_a.png","70","img/green_2bandit_a.png","70","test","","","","","","","","","4","","","","","","","","","","",""
"null","","1777394","SARL_v65sf7npah","msl000093","fixation","","","img/fixation.png","null","","","test","","","","","","","","","","","","","","","","","","","",""
"151","","1777549","SARL_v65sf7npah","msl000093","freq","","","img/green_2bandit_a2.png","70","","70","test","1","","","square","circle","105","102","25","4","0.9019607843137255","","","","","","","","","",""
"null","","1778204","SARL_v65sf7npah","msl000093","freq_resp","","","img/green_2bandit_a.png","70","img/green_2bandit_a.png","70","test","","","","","","","","","4","","","","","","","","","","",""
"null","","1778360","SARL_v65sf7npah","msl000093","fixation","","","img/fixation.png","null","","","test","","","","","","","","","","","","","","","","","","","",""
"293","","1778658","SARL_v65sf7npah","msl000093","freq","","","img/green_2bandit_a2.png","70","","70","test","1","","","square","circle","106","103","26","4","0.9029126213592233","","","","","","","","","",""
"null","","1779172","SARL_v65sf7npah","msl000093","freq_resp","","","img/green_2bandit_a.png","70","img/green_2bandit_a.png","70","test","","","","","","","","","4","","","","","","","","","","",""
"null","","1779328","SARL_v65sf7npah","msl000093","fixation","","","img/fixation.png","null","","","test","","","","","","","","","","","","","","","","","","","",""
"274","","1779607","SARL_v65sf7npah","msl000093","freq","","","img/green_2bandit_a2.png","70","","70","test","1","","","square","circle","107","104","27","4","0.9038461538461539","","","","","","","","","",""
"null","","1780140","SARL_v65sf7npah","msl000093","freq_resp","","","img/green_2bandit_a.png","70","img/green_2bandit_a.png","70","test","","","","","","","","","4","","","","","","","","","","",""
"null","","1780296","SARL_v65sf7npah","msl000093","fixation","","","img/fixation.png","null","","","test","","","","","","","","","","","","","","","","","","","",""
"240","","1780540","SARL_v65sf7npah","msl000093","freq","","","img/green_2bandit_a2.png","70","","70","test","1","","","square","circle","108","105","28","4","0.9047619047619048","","","","","","","","","",""
"null","","1781104","SARL_v65sf7npah","msl000093","freq_resp","","","img/green_2bandit_a.png","70","img/green_2bandit_a.png","70","test","","","","","","","","","4","","","","","","","","","","",""
"null","","1781259","SARL_v65sf7npah","msl000093","fixation","","","img/fixation.png","null","","","test","","","","","","","","","","","","","","","","","","","",""
"274","","1781538","SARL_v65sf7npah","msl000093","freq","","","img/green_2bandit_a2.png","70","","70","test","1","","","square","circle","109","106","29","4","0.9056603773584906","","","","","","","","","",""
"null","","1782069","SARL_v65sf7npah","msl000093","freq_resp","","","img/green_2bandit_a.png","70","img/green_2bandit_a.png","70","test","","","","","","","","","4","","","","","","","","","","",""
"null","","1782226","SARL_v65sf7npah","msl000093","fixation","","","img/fixation.png","null","","","test","","","","","","","","","","","","","","","","","","","",""
"679","","1782910","SARL_v65sf7npah","msl000093","rl","","","img/black_2bandit_a2.png","75","","0","test","","","0","square","circle","110","","0","4","","75","0.8","0.2","0.9892729370308979","0.2","0.8","0.8","circle","4","0"
"null","","1783666","SARL_v65sf7npah","msl000093","feedback","","","img/boo_R_a.png","null","","na","test","","","","","","","","","4","","75","0.8","0.2","","","","0.8","","4",""
"null","","1784471","SARL_v65sf7npah","msl000093","freq","","","img/green_2bandit_a2.png","null","","70","test","0","","","square","circle","111","107","1","5","0.897196261682243","","","","","","","","","",""
"null","","1784626","SARL_v65sf7npah","msl000093","fixation","","","img/fixation.png","null","","","test","","","","","","","","","","","","","","","","","","","",""
"0","","1784631","SARL_v65sf7npah","msl000093","infreq","","","img/orange_2bandit_a2.png","70","","68","test","0","","","square","circle","112","108","2","5","0.8888888888888888","","","","","","","","","",""
"null","","1785437","SARL_v65sf7npah","msl000093","infreq_resp","","","img/orange_2bandit_a.png","70","img/orange_2bandit_a.png","68","test","","","","","","","","","5","","","","","","","","","","",""
"null","","1785594","SARL_v65sf7npah","msl000093","fixation","","","img/fixation.png","null","","","test","","","","","","","","","","","","","","","","","","","",""
"374","","1785972","SARL_v65sf7npah","msl000093","freq","","","img/green_2bandit_a2.png","70","","70","test","1","","","square","circle","113","109","3","5","0.8899082568807339","","","","","","","","","",""
"null","","1786403","SARL_v65sf7npah","msl000093","freq_resp","","","img/green_2bandit_a.png","70","img/green_2bandit_a.png","70","test","","","","","","","","","5","","","","","","","","","","",""
"null","","1786560","SARL_v65sf7npah","msl000093","fixation","","","img/fixation.png","null","","","test","","","","","","","","","","","","","","","","","","","",""
"349","","1786913","SARL_v65sf7npah","msl000093","freq","","","img/green_2bandit_a2.png","70","","70","test","1","","","square","circle","114","110","4","5","0.8909090909090909","","","","","","","","","",""
"null","","1787369","SARL_v65sf7npah","msl000093","freq_resp","","","img/green_2bandit_a.png","70","img/green_2bandit_a.png","70","test","","","","","","","","","5","","","","","","","","","","",""
"null","","1787524","SARL_v65sf7npah","msl000093","fixation","","","img/fixation.png","null","","","test","","","","","","","","","","","","","","","","","","","",""
"359","","1787887","SARL_v65sf7npah","msl000093","freq","","","img/green_2bandit_a2.png","70","","70","test","1","","","square","circle","115","111","5","5","0.8918918918918919","","","","","","","","","",""
"null","","1788333","SARL_v65sf7npah","msl000093","freq_resp","","","img/green_2bandit_a.png","70","img/green_2bandit_a.png","70","test","","","","","","","","","5","","","","","","","","","","",""
"null","","1788488","SARL_v65sf7npah","msl000093","fixation","","","img/fixation.png","null","","","test","","","","","","","","","","","","","","","","","","","",""
"292","","1788784","SARL_v65sf7npah","msl000093","freq","","","img/green_2bandit_a2.png","70","","70","test","1","","","square","circle","116","112","6","5","0.8928571428571429","","","","","","","","","",""
"null","","1789298","SARL_v65sf7npah","msl000093","freq_resp","","","img/green_2bandit_a.png","70","img/green_2bandit_a.png","70","test","","","","","","","","","5","","","","","","","","","","",""
"null","","1789452","SARL_v65sf7npah","msl000093","fixation","","","img/fixation.png","null","","","test","","","","","","","","","","","","","","","","","","","",""
"151","","1789608","SARL_v65sf7npah","msl000093","freq","","","img/green_2bandit_a2.png","70","","70","test","1","","","square","circle","117","113","7","5","0.8938053097345132","","","","","","","","","",""
"null","","1790263","SARL_v65sf7npah","msl000093","freq_resp","","","img/green_2bandit_a.png","70","img/green_2bandit_a.png","70","test","","","","","","","","","5","","","","","","","","","","",""
"null","","1790420","SARL_v65sf7npah","msl000093","fixation","","","img/fixation.png","null","","","test","","","","","","","","","","","","","","","","","","","",""
"103","","1790528","SARL_v65sf7npah","msl000093","freq","","","img/green_2bandit_a2.png","70","","70","test","1","","","square","circle","118","114","8","5","0.8947368421052632","","","","","","","","","",""
"null","","1791232","SARL_v65sf7npah","msl000093","freq_resp","","","img/green_2bandit_a.png","70","img/green_2bandit_a.png","70","test","","","","","","","","","5","","","","","","","","","","",""
"null","","1791388","SARL_v65sf7npah","msl000093","fixation","","","img/fixation.png","null","","","test","","","","","","","","","","","","","","","","","","","",""
"117","","1791511","SARL_v65sf7npah","msl000093","freq","","","img/green_2bandit_a2.png","70","","70","test","1","","","square","circle","119","115","9","5","0.8956521739130435","","","","","","","","","",""
"null","","1792199","SARL_v65sf7npah","msl000093","freq_resp","","","img/green_2bandit_a.png","70","img/green_2bandit_a.png","70","test","","","","","","","","","5","","","","","","","","","","",""
"null","","1792355","SARL_v65sf7npah","msl000093","fixation","","","img/fixation.png","null","","","test","","","","","","","","","","","","","","","","","","","",""
"143","","1792503","SARL_v65sf7npah","msl000093","freq","","","img/green_2bandit_a2.png","70","","70","test","1","","","square","circle","120","116","10","5","0.896551724137931","","","","","","","","","",""
"null","","1793165","SARL_v65sf7npah","msl000093","freq_resp","","","img/green_2bandit_a.png","70","img/green_2bandit_a.png","70","test","","","","","","","","","5","","","","","","","","","","",""
"null","","1793320","SARL_v65sf7npah","msl000093","fixation","","","img/fixation.png","null","","","test","","","","","","","","","","","","","","","","","","","",""
"303","","1793628","SARL_v65sf7npah","msl000093","freq","","","img/green_2bandit_a2.png","70","","70","test","1","","","square","circle","121","117","11","5","0.8974358974358975","","","","","","","","","",""
"null","","1794131","SARL_v65sf7npah","msl000093","freq_resp","","","img/green_2bandit_a.png","70","img/green_2bandit_a.png","70","test","","","","","","","","","5","","","","","","","","","","",""
"null","","1794286","SARL_v65sf7npah","msl000093","fixation","","","img/fixation.png","null","","","test","","","","","","","","","","","","","","","","","","","",""
"404","","1794694","SARL_v65sf7npah","msl000093","infreq","","","img/orange_2bandit_a2.png","68","","68","test","1","","","square","circle","122","118","12","5","0.8983050847457628","","","","","","","","","",""
"null","","1795096","SARL_v65sf7npah","msl000093","infreq_resp","","","img/orange_2bandit_a.png","68","img/orange_2bandit_a.png","68","test","","","","","","","","","5","","","","","","","","","","",""
"null","","1795250","SARL_v65sf7npah","msl000093","fixation","","","img/fixation.png","null","","","test","","","","","","","","","","","","","","","","","","","",""
"328","","1795583","SARL_v65sf7npah","msl000093","freq","","","img/green_2bandit_a2.png","70","","70","test","1","","","square","circle","123","119","13","5","0.8991596638655462","","","","","","","","","",""
"null","","1796062","SARL_v65sf7npah","msl000093","freq_resp","","","img/green_2bandit_a.png","70","img/green_2bandit_a.png","70","test","","","","","","","","","5","","","","","","","","","","",""
"null","","1796218","SARL_v65sf7npah","msl000093","fixation","","","img/fixation.png","null","","","test","","","","","","","","","","","","","","","","","","","",""
"513","","1796735","SARL_v65sf7npah","msl000093","infreq","","","img/orange_2bandit_a2.png","68","","68","test","1","","","square","circle","124","120","14","5","0.9","","","","","","","","","",""
"null","","1797027","SARL_v65sf7npah","msl000093","infreq_resp","","","img/orange_2bandit_a.png","68","img/orange_2bandit_a.png","68","test","","","","","","","","","5","","","","","","","","","","",""
"null","","1797182","SARL_v65sf7npah","msl000093","fixation","","","img/fixation.png","null","","","test","","","","","","","","","","","","","","","","","","","",""
"423","","1797611","SARL_v65sf7npah","msl000093","freq","","","img/green_2bandit_a2.png","70","","70","test","1","","","square","circle","125","121","15","5","0.9008264462809917","","","","","","","","","",""
"null","","1797993","SARL_v65sf7npah","msl000093","freq_resp","","","img/green_2bandit_a.png","70","img/green_2bandit_a.png","70","test","","","","","","","","","5","","","","","","","","","","",""
"null","","1798148","SARL_v65sf7npah","msl000093","fixation","","","img/fixation.png","null","","","test","","","","","","","","","","","","","","","","","","","",""
"362","","1798515","SARL_v65sf7npah","msl000093","freq","","","img/green_2bandit_a2.png","68","","70","test","0","","","square","circle","126","122","16","5","0.8934426229508197","","","","","","","","","",""
"null","","1798958","SARL_v65sf7npah","msl000093","freq_resp","","","img/green_2bandit_a.png","68","img/green_2bandit_a.png","70","test","","","","","","","","","5","","","","","","","","","","",""
"null","","1799114","SARL_v65sf7npah","msl000093","fixation","","","img/fixation.png","null","","","test","","","","","","","","","","","","","","","","","","","",""
"445","","1799563","SARL_v65sf7npah","msl000093","freq","","","img/green_2bandit_a2.png","70","","70","test","1","","","square","circle","127","123","17","5","0.8943089430894309","","","","","","","","","",""
"null","","1799924","SARL_v65sf7npah","msl000093","freq_resp","","","img/green_2bandit_a.png","70","img/green_2bandit_a.png","70","test","","","","","","","","","5","","","","","","","","","","",""
"null","","1800080","SARL_v65sf7npah","msl000093","fixation","","","img/fixation.png","null","","","test","","","","","","","","","","","","","","","","","","","",""
"476","","1800562","SARL_v65sf7npah","msl000093","freq","","","img/green_2bandit_a2.png","70","","70","test","1","","","square","circle","128","124","18","5","0.8951612903225806","","","","","","","","","",""
"null","","1800890","SARL_v65sf7npah","msl000093","freq_resp","","","img/green_2bandit_a.png","70","img/green_2bandit_a.png","70","test","","","","","","","","","5","","","","","","","","","","",""
"null","","1801047","SARL_v65sf7npah","msl000093","fixation","","","img/fixation.png","null","","","test","","","","","","","","","","","","","","","","","","","",""
"363","","1801414","SARL_v65sf7npah","msl000093","freq","","","img/green_2bandit_a2.png","70","","70","test","1","","","square","circle","129","125","19","5","0.896","","","","","","","","","",""
"null","","1801856","SARL_v65sf7npah","msl000093","freq_resp","","","img/green_2bandit_a.png","70","img/green_2bandit_a.png","70","test","","","","","","","","","5","","","","","","","","","","",""
"null","","1802012","SARL_v65sf7npah","msl000093","fixation","","","img/fixation.png","null","","","test","","","","","","","","","","","","","","","","","","","",""
"425","","1802443","SARL_v65sf7npah","msl000093","freq","","","img/green_2bandit_a2.png","70","","70","test","1","","","square","circle","130","126","20","5","0.8968253968253969","","","","","","","","","",""
"null","","1802823","SARL_v65sf7npah","msl000093","freq_resp","","","img/green_2bandit_a.png","70","img/green_2bandit_a.png","70","test","","","","","","","","","5","","","","","","","","","","",""
"null","","1802977","SARL_v65sf7npah","msl000093","fixation","","","img/fixation.png","null","","","test","","","","","","","","","","","","","","","","","","","",""
"355","","1803336","SARL_v65sf7npah","msl000093","freq","","","img/green_2bandit_a2.png","70","","70","test","1","","","square","circle","131","127","21","5","0.8976377952755905","","","","","","","","","",""
"null","","1803786","SARL_v65sf7npah","msl000093","freq_resp","","","img/green_2bandit_a.png","70","img/green_2bandit_a.png","70","test","","","","","","","","","5","","","","","","","","","","",""
"null","","1803943","SARL_v65sf7npah","msl000093","fixation","","","img/fixation.png","null","","","test","","","","","","","","","","","","","","","","","","","",""
"690","","1804636","SARL_v65sf7npah","msl000093","rl","","","img/black_2bandit_a2.png","74","","0","test","","","1","square","circle","132","","0","5","","74","0.8","0.2","0.17664946087743572","0.2","0.8","0.2","square","5","0"
"null","","1805393","SARL_v65sf7npah","msl000093","feedback","","","img/yay_L_a.png","null","","na","test","","","","","","","","","5","","74","0.8","0.2","","","","0.2","","5",""
"483","","1805881","SARL_v65sf7npah","msl000093","freq","","","img/green_2bandit_a2.png","70","","70","test","1","","","square","circle","133","128","1","6","0.8984375","","","","","","","","","",""
"null","","1806203","SARL_v65sf7npah","msl000093","freq_resp","","","img/green_2bandit_a.png","70","img/green_2bandit_a.png","70","test","","","","","","","","","6","","","","","","","","","","",""
"null","","1806359","SARL_v65sf7npah","msl000093","fixation","","","img/fixation.png","null","","","test","","","","","","","","","","","","","","","","","","","",""
"339","","1806704","SARL_v65sf7npah","msl000093","freq","","","img/green_2bandit_a2.png","70","","70","test","1","","","square","circle","134","129","2","6","0.8992248062015504","","","","","","","","","",""
"null","","1807171","SARL_v65sf7npah","msl000093","freq_resp","","","img/green_2bandit_a.png","70","img/green_2bandit_a.png","70","test","","","","","","","","","6","","","","","","","","","","",""
"null","","1807326","SARL_v65sf7npah","msl000093","fixation","","","img/fixation.png","null","","","test","","","","","","","","","","","","","","","","","","","",""
"299","","1807631","SARL_v65sf7npah","msl000093","freq","","","img/green_2bandit_a2.png","70","","70","test","1","","","square","circle","135","130","3","6","0.9","","","","","","","","","",""
"null","","1808139","SARL_v65sf7npah","msl000093","freq_resp","","","img/green_2bandit_a.png","70","img/green_2bandit_a.png","70","test","","","","","","","","","6","","","","","","","","","","",""
"null","","1808295","SARL_v65sf7npah","msl000093","fixation","","","img/fixation.png","null","","","test","","","","","","","","","","","","","","","","","","","",""
"241","","1808542","SARL_v65sf7npah","msl000093","freq","","","img/green_2bandit_a2.png","70","","70","test","1","","","square","circle","136","131","4","6","0.9007633587786259","","","","","","","","","",""
"null","","1809107","SARL_v65sf7npah","msl000093","freq_resp","","","img/green_2bandit_a.png","70","img/green_2bandit_a.png","70","test","","","","","","","","","6","","","","","","","","","","",""
"null","","1809263","SARL_v65sf7npah","msl000093","fixation","","","img/fixation.png","null","","","test","","","","","","","","","","","","","","","","","","","",""
"259","","1809526","SARL_v65sf7npah","msl000093","infreq","","","img/orange_2bandit_a2.png","70","","68","test","0","","","square","circle","137","132","5","6","0.8939393939393939","","","","","","","","","",""
"null","","1810074","SARL_v65sf7npah","msl000093","infreq_resp","","","img/orange_2bandit_a.png","70","img/orange_2bandit_a.png","68","test","","","","","","","","","6","","","","","","","","","","",""
"null","","1810230","SARL_v65sf7npah","msl000093","fixation","","","img/fixation.png","null","","","test","","","","","","","","","","","","","","","","","","","",""
"639","","1810874","SARL_v65sf7npah","msl000093","freq","","","img/green_2bandit_a2.png","70","","70","test","1","","","square","circle","138","133","6","6","0.8947368421052632","","","","","","","","","",""
"null","","1811040","SARL_v65sf7npah","msl000093","freq_resp","","","img/green_2bandit_a.png","70","img/green_2bandit_a.png","70","test","","","","","","","","","6","","","","","","","","","","",""
"null","","1811196","SARL_v65sf7npah","msl000093","fixation","","","img/fixation.png","null","","","test","","","","","","","","","","","","","","","","","","","",""
"470","","1811671","SARL_v65sf7npah","msl000093","freq","","","img/green_2bandit_a2.png","70","","70","test","1","","","square","circle","139","134","7","6","0.8955223880597015","","","","","","","","","",""
"null","","1812007","SARL_v65sf7npah","msl000093","freq_resp","","","img/green_2bandit_a.png","70","img/green_2bandit_a.png","70","test","","","","","","","","","6","","","","","","","","","","",""
"null","","1812162","SARL_v65sf7npah","msl000093","fixation","","","img/fixation.png","null","","","test","","","","","","","","","","","","","","","","","","","",""
"537","","1812704","SARL_v65sf7npah","msl000093","infreq","","","img/orange_2bandit_a2.png","68","","68","test","1","","","square","circle","140","135","8","6","0.8962962962962963","","","","","","","","","",""
"null","","1812971","SARL_v65sf7npah","msl000093","infreq_resp","","","img/orange_2bandit_a.png","68","img/orange_2bandit_a.png","68","test","","","","","","","","","6","","","","","","","","","","",""
"null","","1813126","SARL_v65sf7npah","msl000093","fixation","","","img/fixation.png","null","","","test","","","","","","","","","","","","","","","","","","","",""
"467","","1813598","SARL_v65sf7npah","msl000093","freq","","","img/green_2bandit_a2.png","70","","70","test","1","","","square","circle","141","136","9","6","0.8970588235294118","","","","","","","","","",""
"null","","1813937","SARL_v65sf7npah","msl000093","freq_resp","","","img/green_2bandit_a.png","70","img/green_2bandit_a.png","70","test","","","","","","","","","6","","","","","","","","","","",""
"null","","1814094","SARL_v65sf7npah","msl000093","fixation","","","img/fixation.png","null","","","test","","","","","","","","","","","","","","","","","","","",""
"317","","1814416","SARL_v65sf7npah","msl000093","freq","","","img/green_2bandit_a2.png","70","","70","test","1","","","square","circle","142","137","10","6","0.8978102189781022","","","","","","","","","",""
"null","","1814905","SARL_v65sf7npah","msl000093","freq_resp","","","img/green_2bandit_a.png","70","img/green_2bandit_a.png","70","test","","","","","","","","","6","","","","","","","","","","",""
"null","","1815061","SARL_v65sf7npah","msl000093","fixation","","","img/fixation.png","null","","","test","","","","","","","","","","","","","","","","","","","",""
"315","","1815381","SARL_v65sf7npah","msl000093","freq","","","img/green_2bandit_a2.png","70","","70","test","1","","","square","circle","143","138","11","6","0.8985507246376812","","","","","","","","","",""
"null","","1815871","SARL_v65sf7npah","msl000093","freq_resp","","","img/green_2bandit_a.png","70","img/green_2bandit_a.png","70","test","","","","","","","","","6","","","","","","","","","","",""
"null","","1816027","SARL_v65sf7npah","msl000093","fixation","","","img/fixation.png","null","","","test","","","","","","","","","","","","","","","","","","","",""
"309","","1816342","SARL_v65sf7npah","msl000093","freq","","","img/green_2bandit_a2.png","70","","70","test","1","","","square","circle","144","139","12","6","0.8992805755395683","","","","","","","","","",""
"null","","1816838","SARL_v65sf7npah","msl000093","freq_resp","","","img/green_2bandit_a.png","70","img/green_2bandit_a.png","70","test","","","","","","","","","6","","","","","","","","","","",""
"null","","1816993","SARL_v65sf7npah","msl000093","fixation","","","img/fixation.png","null","","","test","","","","","","","","","","","","","","","","","","","",""
"648","","1817646","SARL_v65sf7npah","msl000093","infreq","","","img/orange_2bandit_a2.png","68","","68","test","1","","","square","circle","145","140","13","6","0.9","","","","","","","","","",""
"null","","1817804","SARL_v65sf7npah","msl000093","infreq_resp","","","img/orange_2bandit_a.png","68","img/orange_2bandit_a.png","68","test","","","","","","","","","6","","","","","","","","","","",""
"null","","1817959","SARL_v65sf7npah","msl000093","fixation","","","img/fixation.png","null","","","test","","","","","","","","","","","","","","","","","","","",""
"577","","1818541","SARL_v65sf7npah","msl000093","freq","","","img/green_2bandit_a2.png","70","","70","test","1","","","square","circle","146","141","14","6","0.900709219858156","","","","","","","","","",""
"null","","1818770","SARL_v65sf7npah","msl000093","freq_resp","","","img/green_2bandit_a.png","70","img/green_2bandit_a.png","70","test","","","","","","","","","6","","","","","","","","","","",""
"null","","1818926","SARL_v65sf7npah","msl000093","fixation","","","img/fixation.png","null","","","test","","","","","","","","","","","","","","","","","","","",""
"448","","1819380","SARL_v65sf7npah","msl000093","freq","","","img/green_2bandit_a2.png","70","","70","test","1","","","square","circle","147","142","15","6","0.9014084507042254","","","","","","","","","",""
"null","","1819738","SARL_v65sf7npah","msl000093","freq_resp","","","img/green_2bandit_a.png","70","img/green_2bandit_a.png","70","test","","","","","","","","","6","","","","","","","","","","",""
"null","","1819894","SARL_v65sf7npah","msl000093","fixation","","","img/fixation.png","null","","","test","","","","","","","","","","","","","","","","","","","",""
"334","","1820233","SARL_v65sf7npah","msl000093","freq","","","img/green_2bandit_a2.png","70","","70","test","1","","","square","circle","148","143","16","6","0.9020979020979021","","","","","","","","","",""
"null","","1820705","SARL_v65sf7npah","msl000093","freq_resp","","","img/green_2bandit_a.png","70","img/green_2bandit_a.png","70","test","","","","","","","","","6","","","","","","","","","","",""
"null","","1820859","SARL_v65sf7npah","msl000093","fixation","","","img/fixation.png","null","","","test","","","","","","","","","","","","","","","","","","","",""
