"rt","responses","time_elapsed","subject","demoID","trialType","rlType","attType","stimulus","key_press","stim","corrresp","phase","corr","pracCounter","reward","bandOne","bandTwo","trialNum","attentionNum","attentionRunNum","blockNum","performance","bandChosen","circleVal","squareVal","coin","bandOneVal","bandTwoVal","pReward","shapeChosen","rlNum","badFlag"
"496086","{""Q0"":""msl000124""}","496110","SARL_v6f933l72m","msl000124","","","","","","","","","","","","","","","","","","","","","","","","","","","",""
"669","","496784","SARL_v6f933l72m","msl000124","","","","","","","","","","","","","","","","","","","","","","","","","","","",""
"","","498743","SARL_v6f933l72m","msl000124","fullscreen","fullscreen","fullscreen","","","","","","","","","","","","","","","","","","","","","","","","",""
"90694","","589441","SARL_v6f933l72m","msl000124","","","","","","","","","","","","","","","","","","","","","","","","","","","",""
"null","","590249","SARL_v6f933l72m","msl000124","freqPrac","","","img/orange_2bandit_b2.png","null","img/orange_2bandit_b2.png","70","prac","0","1","","","","","","","","","","","","","","","","","",""
"null","","591255","SARL_v6f933l72m","msl000124","feedback","","","img/tooSlow.png","null","","na","prac","","","","","","","","","","","","","","","","","","","",""
"null","","591412","SARL_v6f933l72m","msl000124","fixation","","","img/fixation.png","null","","","prac","","","","","","","","","","","","","","","","","","","",""
"529","","591947","SARL_v6f933l72m","msl000124","infreqPrac","","","img/green_2bandit_b2.png","68","img/green_2bandit_b2.png","68","prac","1","1","","","","","","","","","","","","","","","","","",""
"529","","592224","SARL_v6f933l72m","msl000124","infreqPrac_resp","","","img/green_2bandit_b.png","68","img/green_2bandit_b.png","68","prac","","","","","","","","","","","","","","","","","","","",""
"null","","592380","SARL_v6f933l72m","msl000124","fixation","","","img/fixation.png","null","","","prac","","","","","","","","","","","","","","","","","","","",""
"430","","592815","SARL_v6f933l72m","msl000124","freqPrac","","","img/orange_2bandit_b2.png","70","img/orange_2bandit_b2.png","70","prac","1","1","","","","","","","","","","","","","","","","","",""
"430","","593191","SARL_v6f933l72m","msl000124","freqPrac_resp","","","img/orange_2bandit_b.png","70","img/orange_2bandit_b.png","70","prac","","","","","","","","","","","","","","","","","","","",""
"141","","593347","SARL_v6f933l72m","msl000124","fixation","","","img/fixation.png","70","","","prac","","","","","","","","","","","","","","","","","","","",""
"519","","593871","SARL_v6f933l72m","msl000124","infreqPrac","","","img/green_2bandit_b2.png","68","img/green_2bandit_b2.png","68","prac","1","1","","","","","","","","","","","","","","","","","",""
"519","","594157","SARL_v6f933l72m","msl000124","infreqPrac_resp","","","img/green_2bandit_b.png","68","img/green_2bandit_b.png","68","prac","","","","","","","","","","","","","","","","","","","",""
"null","","594312","SARL_v6f933l72m","msl000124","fixation","","","img/fixation.png","null","","","prac","","","","","","","","","","","","","","","","","","","",""
"359","","594676","SARL_v6f933l72m","msl000124","infreqPrac","","","img/green_2bandit_b2.png","68","img/green_2bandit_b2.png","68","prac","1","1","","","","","","","","","","","","","","","","","",""
"359","","595123","SARL_v6f933l72m","msl000124","infreqPrac_resp","","","img/green_2bandit_b.png","68","img/green_2bandit_b.png","68","prac","","","","","","","","","","","","","","","","","","","",""
"null","","595278","SARL_v6f933l72m","msl000124","fixation","","","img/fixation.png","null","","","prac","","","","","","","","","","","","","","","","","","","",""
"336","","595618","SARL_v6f933l72m","msl000124","infreqPrac","","","img/green_2bandit_b2.png","68","img/green_2bandit_b2.png","68","prac","1","1","","","","","","","","","","","","","","","","","",""
"336","","596088","SARL_v6f933l72m","msl000124","infreqPrac_resp","","","img/green_2bandit_b.png","68","img/green_2bandit_b.png","68","prac","","","","","","","","","","","","","","","","","","","",""
"null","","596245","SARL_v6f933l72m","msl000124","fixation","","","img/fixation.png","null","","","prac","","","","","","","","","","","","","","","","","","","",""
"407","","596657","SARL_v6f933l72m","msl000124","freqPrac","","","img/orange_2bandit_b2.png","70","img/orange_2bandit_b2.png","70","prac","1","1","","","","","","","","","","","","","","","","","",""
"407","","597055","SARL_v6f933l72m","msl000124","freqPrac_resp","","","img/orange_2bandit_b.png","70","img/orange_2bandit_b.png","70","prac","","","","","","","","","","","","","","","","","","","",""
"null","","597211","SARL_v6f933l72m","msl000124","fixation","","","img/fixation.png","null","","","prac","","","","","","","","","","","","","","","","","","","",""
"534","","597751","SARL_v6f933l72m","msl000124","infreqPrac","","","img/green_2bandit_b2.png","68","img/green_2bandit_b2.png","68","prac","1","1","","","","","","","","","","","","","","","","","",""
"534","","598024","SARL_v6f933l72m","msl000124","infreqPrac_resp","","","img/green_2bandit_b.png","68","img/green_2bandit_b.png","68","prac","","","","","","","","","","","","","","","","","","","",""
"null","","598179","SARL_v6f933l72m","msl000124","fixation","","","img/fixation.png","null","","","prac","","","","","","","","","","","","","","","","","","","",""
"482","","598665","SARL_v6f933l72m","msl000124","freqPrac","","","img/orange_2bandit_b2.png","70","img/orange_2bandit_b2.png","70","prac","1","1","","","","","","","","","","","","","","","","","",""
"482","","598989","SARL_v6f933l72m","msl000124","freqPrac_resp","","","img/orange_2bandit_b.png","70","img/orange_2bandit_b.png","70","prac","","","","","","","","","","","","","","","","","","","",""
"null","","599144","SARL_v6f933l72m","msl000124","fixation","","","img/fixation.png","null","","","prac","","","","","","","","","","","","","","","","","","","",""
"415","","599563","SARL_v6f933l72m","msl000124","freqPrac","","","img/orange_2bandit_b2.png","70","img/orange_2bandit_b2.png","70","prac","1","1","","","","","","","","","","","","","","","","","",""
"415","","599954","SARL_v6f933l72m","msl000124","freqPrac_resp","","","img/orange_2bandit_b.png","70","img/orange_2bandit_b.png","70","prac","","","","","","","","","","","","","","","","","","","",""
"null","","600110","SARL_v6f933l72m","msl000124","fixation","","","img/fixation.png","null","","","prac","","","","","","","","","","","","","","","","","","","",""
"80790","","680905","SARL_v6f933l72m","msl000124","","","","","","","","prac","","","","","","","","","","","","","","","","","","","",""
"1027","","681937","SARL_v6f933l72m","msl000124","rlPractice","","","img/black_2bandit_b2.png","75","img/black_2bandit_b2.png","","prac","","","75","","","","","","","","","","","","","","","","",""
"null","","682694","SARL_v6f933l72m","msl000124","feedback","","","img/yay_R_b.png","null","","na","prac","","","","","","","","","","","","","","","","","","","",""
"null","","682849","SARL_v6f933l72m","msl000124","fixation","","","img/fixation.png","null","","","prac","","","","","","","","","","","","","","","","","","","",""
"700","","683554","SARL_v6f933l72m","msl000124","rlPractice","","","img/black_2bandit_b2.png","75","img/black_2bandit_b2.png","","prac","","","75","","","","","","","","","","","","","","","","",""
"null","","684309","SARL_v6f933l72m","msl000124","feedback","","","img/yay_R_b.png","null","","na","prac","","","","","","","","","","","","","","","","","","","",""
"null","","684466","SARL_v6f933l72m","msl000124","fixation","","","img/fixation.png","null","","","prac","","","","","","","","","","","","","","","","","","","",""
"383","","684854","SARL_v6f933l72m","msl000124","rlPractice","","","img/black_2bandit_b2.png","75","img/black_2bandit_b2.png","","prac","","","75","","","","","","","","","","","","","","","","",""
"null","","685610","SARL_v6f933l72m","msl000124","feedback","","","img/yay_R_b.png","null","","na","prac","","","","","","","","","","","","","","","","","","","",""
"null","","685766","SARL_v6f933l72m","msl000124","fixation","","","img/fixation.png","null","","","prac","","","","","","","","","","","","","","","","","","","",""
"359","","686129","SARL_v6f933l72m","msl000124","rlPractice","","","img/black_2bandit_b2.png","75","img/black_2bandit_b2.png","","prac","","","75","","","","","","","","","","","","","","","","",""
"null","","686884","SARL_v6f933l72m","msl000124","feedback","","","img/yay_R_b.png","null","","na","prac","","","","","","","","","","","","","","","","","","","",""
"null","","687039","SARL_v6f933l72m","msl000124","fixation","","","img/fixation.png","null","","","prac","","","","","","","","","","","","","","","","","","","",""
"429","","687472","SARL_v6f933l72m","msl000124","rlPractice","","","img/black_2bandit_b2.png","75","img/black_2bandit_b2.png","","prac","","","75","","","","","","","","","","","","","","","","",""
"null","","688229","SARL_v6f933l72m","msl000124","feedback","","","img/yay_R_b.png","null","","na","prac","","","","","","","","","","","","","","","","","","","",""
"null","","688384","SARL_v6f933l72m","msl000124","fixation","","","img/fixation.png","null","","","prac","","","","","","","","","","","","","","","","","","","",""
"368","","688758","SARL_v6f933l72m","msl000124","rlPractice","","","img/black_2bandit_b2.png","75","img/black_2bandit_b2.png","","prac","","","75","","","","","","","","","","","","","","","","",""
"null","","689513","SARL_v6f933l72m","msl000124","feedback","","","img/yay_R_b.png","null","","na","prac","","","","","","","","","","","","","","","","","","","",""
"null","","689669","SARL_v6f933l72m","msl000124","fixation","","","img/fixation.png","null","","","prac","","","","","","","","","","","","","","","","","","","",""
"475","","690148","SARL_v6f933l72m","msl000124","rlPractice","","","img/black_2bandit_b2.png","75","img/black_2bandit_b2.png","","prac","","","75","","","","","","","","","","","","","","","","",""
"null","","690904","SARL_v6f933l72m","msl000124","feedback","","","img/yay_R_b.png","null","","na","prac","","","","","","","","","","","","","","","","","","","",""
"null","","691060","SARL_v6f933l72m","msl000124","fixation","","","img/fixation.png","null","","","prac","","","","","","","","","","","","","","","","","","","",""
"22867","","713931","SARL_v6f933l72m","msl000124","","","","","","","","prac","","","","","","","","","","","","","","","","","","","",""
"null","","714737","SARL_v6f933l72m","msl000124","mixAttFreqPrac","","","img/orange_2bandit_b2.png","null","img/orange_2bandit_b2.png","70","prac","","","","","","","","","","","","","","","","","","","",""
"null","","714892","SARL_v6f933l72m","msl000124","fixation","","","img/fixation.png","null","","","prac","","","","","","","","","","","","","","","","","","","",""
"null","","715698","SARL_v6f933l72m","msl000124","mixAttInfreqPrac","","","img/green_2bandit_b2.png","null","img/green_2bandit_b2.png","68","prac","","","","","","","","","","","","","","","","","","","",""
"null","","715854","SARL_v6f933l72m","msl000124","fixation","","","img/fixation.png","null","","","prac","","","","","","","","","","","","","","","","","","","",""
"439","","716298","SARL_v6f933l72m","msl000124","mixAttInfreqPrac","","","img/green_2bandit_b2.png","68","img/green_2bandit_b2.png","68","prac","","","","","","","","","","","","","","","","","","","",""
"439","","716665","SARL_v6f933l72m","msl000124","infreqPrac_resp","","","img/green_2bandit_b.png","68","img/orange_2bandit_b.png","68","prac","","","","","","","","","","","","","","","","","","","",""
"null","","716821","SARL_v6f933l72m","msl000124","fixation","","","img/fixation.png","null","","","prac","","","","","","","","","","","","","","","","","","","",""
"4","","716829","SARL_v6f933l72m","msl000124","mixAttInfreqPrac","","","img/green_2bandit_b2.png","68","img/green_2bandit_b2.png","68","prac","","","","","","","","","","","","","","","","","","","",""
"4","","717632","SARL_v6f933l72m","msl000124","infreqPrac_resp","","","img/green_2bandit_b.png","68","img/orange_2bandit_b.png","68","prac","","","","","","","","","","","","","","","","","","","",""
"null","","717788","SARL_v6f933l72m","msl000124","fixation","","","img/fixation.png","null","","","prac","","","","","","","","","","","","","","","","","","","",""
"438","","718231","SARL_v6f933l72m","msl000124","mixAttFreqPrac","","","img/orange_2bandit_b2.png","70","img/orange_2bandit_b2.png","70","prac","","","","","","","","","","","","","","","","","","","",""
"438","","718599","SARL_v6f933l72m","msl000124","freqPrac_resp","","","img/orange_2bandit_b.png","70","img/orange_2bandit_b.png","70","prac","","","","","","","","","","","","","","","","","","","",""
"null","","718755","SARL_v6f933l72m","msl000124","fixation","","","img/fixation.png","null","","","prac","","","","","","","","","","","","","","","","","","","",""
"943","","719701","SARL_v6f933l72m","msl000124","mixRLPractice","","","img/black_2bandit_b2.png","75","img/black_2bandit_b2.png","","prac","","","","","","","","","","","","","","","","","","","",""
"null","","720458","SARL_v6f933l72m","msl000124","feedback","","","img/boo_R_b.png","null","","na","prac","","","","","","","","","","","","","","","","","","","",""
"null","","721264","SARL_v6f933l72m","msl000124","mixAttFreqPrac","","","img/orange_2bandit_b2.png","null","img/orange_2bandit_b2.png","70","prac","","","","","","","","","","","","","","","","","","","",""
"null","","721420","SARL_v6f933l72m","msl000124","fixation","","","img/fixation.png","null","","","prac","","","","","","","","","","","","","","","","","","","",""
"631","","722056","SARL_v6f933l72m","msl000124","mixAttInfreqPrac","","","img/green_2bandit_b2.png","68","img/green_2bandit_b2.png","68","prac","","","","","","","","","","","","","","","","","","","",""
"631","","722231","SARL_v6f933l72m","msl000124","infreqPrac_resp","","","img/green_2bandit_b.png","68","img/orange_2bandit_b.png","68","prac","","","","","","","","","","","","","","","","","","","",""
"null","","722386","SARL_v6f933l72m","msl000124","fixation","","","img/fixation.png","null","","","prac","","","","","","","","","","","","","","","","","","","",""
"376","","722767","SARL_v6f933l72m","msl000124","mixAttFreqPrac","","","img/orange_2bandit_b2.png","70","img/orange_2bandit_b2.png","70","prac","","","","","","","","","","","","","","","","","","","",""
"376","","723196","SARL_v6f933l72m","msl000124","freqPrac_resp","","","img/orange_2bandit_b.png","70","img/orange_2bandit_b.png","70","prac","","","","","","","","","","","","","","","","","","","",""
"null","","723352","SARL_v6f933l72m","msl000124","fixation","","","img/fixation.png","null","","","prac","","","","","","","","","","","","","","","","","","","",""
"369","","723726","SARL_v6f933l72m","msl000124","mixAttFreqPrac","","","img/orange_2bandit_b2.png","70","img/orange_2bandit_b2.png","70","prac","","","","","","","","","","","","","","","","","","","",""
"369","","724162","SARL_v6f933l72m","msl000124","freqPrac_resp","","","img/orange_2bandit_b.png","70","img/orange_2bandit_b.png","70","prac","","","","","","","","","","","","","","","","","","","",""
"null","","724319","SARL_v6f933l72m","msl000124","fixation","","","img/fixation.png","null","","","prac","","","","","","","","","","","","","","","","","","","",""
"482","","724804","SARL_v6f933l72m","msl000124","mixAttInfreqPrac","","","img/green_2bandit_b2.png","68","img/green_2bandit_b2.png","68","prac","","","","","","","","","","","","","","","","","","","",""
"482","","725128","SARL_v6f933l72m","msl000124","infreqPrac_resp","","","img/green_2bandit_b.png","68","img/orange_2bandit_b.png","68","prac","","","","","","","","","","","","","","","","","","","",""
"null","","725284","SARL_v6f933l72m","msl000124","fixation","","","img/fixation.png","null","","","prac","","","","","","","","","","","","","","","","","","","",""
"577","","725865","SARL_v6f933l72m","msl000124","mixRLPractice","","","img/black_2bandit_b2.png","74","img/black_2bandit_b2.png","","prac","","","","","","","","","","","","","","","","","","","",""
"null","","726621","SARL_v6f933l72m","msl000124","feedback","","","img/yay_L_b.png","null","","na","prac","","","","","","","","","","","","","","","","","","","",""
"144580","","871206","SARL_v6f933l72m","msl000124","","","","","","","","prac","","","","","","","","","","","","","","","","","","","",""
"null","","872011","SARL_v6f933l72m","msl000124","freq","","","img/orange_2bandit_b2.png","null","","70","test","0","","","circle","square","1","1","1","1","0","","","","","","","","","",""
"null","","872167","SARL_v6f933l72m","msl000124","fixation","","","img/fixation.png","null","","","test","","","","","","","","","","","","","","","","","","","",""
"368","","872540","SARL_v6f933l72m","msl000124","freq","","","img/orange_2bandit_b2.png","70","","70","test","1","","","circle","square","2","2","2","1","0.5","","","","","","","","","",""
"null","","872977","SARL_v6f933l72m","msl000124","freq_resp","","","img/orange_2bandit_b.png","70","img/orange_2bandit_b.png","70","test","","","","","","","","","1","","","","","","","","","","",""
"null","","873134","SARL_v6f933l72m","msl000124","fixation","","","img/fixation.png","null","","","test","","","","","","","","","","","","","","","","","","","",""
"479","","873618","SARL_v6f933l72m","msl000124","freq","","","img/orange_2bandit_b2.png","70","","70","test","1","","","circle","square","3","3","3","1","0.6666666666666666","","","","","","","","","",""
"null","","873945","SARL_v6f933l72m","msl000124","freq_resp","","","img/orange_2bandit_b.png","70","img/orange_2bandit_b.png","70","test","","","","","","","","","1","","","","","","","","","","",""
"null","","874099","SARL_v6f933l72m","msl000124","fixation","","","img/fixation.png","null","","","test","","","","","","","","","","","","","","","","","","","",""
"286","","874391","SARL_v6f933l72m","msl000124","freq","","","img/orange_2bandit_b2.png","70","","70","test","1","","","circle","square","4","4","4","1","0.75","","","","","","","","","",""
"null","","874911","SARL_v6f933l72m","msl000124","freq_resp","","","img/orange_2bandit_b.png","70","img/orange_2bandit_b.png","70","test","","","","","","","","","1","","","","","","","","","","",""
"null","","875067","SARL_v6f933l72m","msl000124","fixation","","","img/fixation.png","null","","","test","","","","","","","","","","","","","","","","","","","",""
"308","","875380","SARL_v6f933l72m","msl000124","freq","","","img/orange_2bandit_b2.png","70","","70","test","1","","","circle","square","5","5","5","1","0.8","","","","","","","","","",""
"null","","875878","SARL_v6f933l72m","msl000124","freq_resp","","","img/orange_2bandit_b.png","70","img/orange_2bandit_b.png","70","test","","","","","","","","","1","","","","","","","","","","",""
"null","","876033","SARL_v6f933l72m","msl000124","fixation","","","img/fixation.png","null","","","test","","","","","","","","","","","","","","","","","","","",""
"227","","876265","SARL_v6f933l72m","msl000124","freq","","","img/orange_2bandit_b2.png","70","","70","test","1","","","circle","square","6","6","6","1","0.8333333333333334","","","","","","","","","",""
"null","","876845","SARL_v6f933l72m","msl000124","freq_resp","","","img/orange_2bandit_b.png","70","img/orange_2bandit_b.png","70","test","","","","","","","","","1","","","","","","","","","","",""
"null","","877000","SARL_v6f933l72m","msl000124","fixation","","","img/fixation.png","null","","","test","","","","","","","","","","","","","","","","","","","",""
"793","","877799","SARL_v6f933l72m","msl000124","infreq","","","img/green_2bandit_b2.png","68","","68","test","1","","","circle","square","7","7","7","1","0.8571428571428571","","","","","","","","","",""
"null","","877811","SARL_v6f933l72m","msl000124","infreq_resp","","","img/green_2bandit_b.png","68","img/green_2bandit_b.png","68","test","","","","","","","","","1","","","","","","","","","","",""
"null","","877968","SARL_v6f933l72m","msl000124","fixation","","","img/fixation.png","null","","","test","","","","","","","","","","","","","","","","","","","",""
"725","","878699","SARL_v6f933l72m","msl000124","freq","","","img/orange_2bandit_b2.png","70","","70","test","1","","","circle","square","8","8","8","1","0.875","","","","","","","","","",""
"null","","878779","SARL_v6f933l72m","msl000124","freq_resp","","","img/orange_2bandit_b.png","70","img/orange_2bandit_b.png","70","test","","","","","","","","","1","","","","","","","","","","",""
"null","","878935","SARL_v6f933l72m","msl000124","fixation","","","img/fixation.png","null","","","test","","","","","","","","","","","","","","","","","","","",""
"681","","879620","SARL_v6f933l72m","msl000124","freq","","","img/orange_2bandit_b2.png","70","","70","test","1","","","circle","square","9","9","9","1","0.8888888888888888","","","","","","","","","",""
"null","","879745","SARL_v6f933l72m","msl000124","freq_resp","","","img/orange_2bandit_b.png","70","img/orange_2bandit_b.png","70","test","","","","","","","","","1","","","","","","","","","","",""
"null","","879901","SARL_v6f933l72m","msl000124","fixation","","","img/fixation.png","null","","","test","","","","","","","","","","","","","","","","","","","",""
"null","","880708","SARL_v6f933l72m","msl000124","freq","","","img/orange_2bandit_b2.png","null","","70","test","0","","","circle","square","10","10","10","1","0.8","","","","","","","","","",""
"null","","880863","SARL_v6f933l72m","msl000124","fixation","","","img/fixation.png","null","","","test","","","","","","","","","","","","","","","","","","","",""
"666","","881533","SARL_v6f933l72m","msl000124","freq","","","img/orange_2bandit_b2.png","68","","70","test","0","","","circle","square","11","11","11","1","0.7272727272727273","","","","","","","","","",""
"null","","881672","SARL_v6f933l72m","msl000124","freq_resp","","","img/orange_2bandit_b.png","68","img/orange_2bandit_b.png","70","test","","","","","","","","","1","","","","","","","","","","",""
"null","","881828","SARL_v6f933l72m","msl000124","fixation","","","img/fixation.png","null","","","test","","","","","","","","","","","","","","","","","","","",""
"485","","882317","SARL_v6f933l72m","msl000124","freq","","","img/orange_2bandit_b2.png","68","","70","test","0","","","circle","square","12","12","12","1","0.6666666666666666","","","","","","","","","",""
"null","","882637","SARL_v6f933l72m","msl000124","freq_resp","","","img/orange_2bandit_b.png","68","img/orange_2bandit_b.png","70","test","","","","","","","","","1","","","","","","","","","","",""
"null","","882793","SARL_v6f933l72m","msl000124","fixation","","","img/fixation.png","null","","","test","","","","","","","","","","","","","","","","","","","",""
"549","","883346","SARL_v6f933l72m","msl000124","infreq","","","img/green_2bandit_b2.png","70","","68","test","0","","","circle","square","13","13","13","1","0.6153846153846154","","","","","","","","","",""
"null","","883603","SARL_v6f933l72m","msl000124","infreq_resp","","","img/green_2bandit_b.png","70","img/green_2bandit_b.png","68","test","","","","","","","","","1","","","","","","","","","","",""
"null","","883760","SARL_v6f933l72m","msl000124","fixation","","","img/fixation.png","null","","","test","","","","","","","","","","","","","","","","","","","",""
"615","","884381","SARL_v6f933l72m","msl000124","freq","","","img/orange_2bandit_b2.png","68","","70","test","0","","","circle","square","14","14","14","1","0.5714285714285714","","","","","","","","","",""
"null","","884570","SARL_v6f933l72m","msl000124","freq_resp","","","img/orange_2bandit_b.png","68","img/orange_2bandit_b.png","70","test","","","","","","","","","1","","","","","","","","","","",""
"null","","884728","SARL_v6f933l72m","msl000124","fixation","","","img/fixation.png","null","","","test","","","","","","","","","","","","","","","","","","","",""
"null","","885533","SARL_v6f933l72m","msl000124","freq","","","img/orange_2bandit_b2.png","null","","70","test","0","","","circle","square","15","15","15","1","0.5333333333333333","","","","","","","","","",""
"null","","885690","SARL_v6f933l72m","msl000124","fixation","","","img/fixation.png","null","","","test","","","","","","","","","","","","","","","","","","","",""
"null","","886496","SARL_v6f933l72m","msl000124","freq","","","img/orange_2bandit_b2.png","null","","70","test","0","","","circle","square","16","16","16","1","0.5","","","","","","","","","",""
"null","","886651","SARL_v6f933l72m","msl000124","fixation","","","img/fixation.png","null","","","test","","","","","","","","","","","","","","","","","","","",""
"470","","887124","SARL_v6f933l72m","msl000124","freq","","","img/orange_2bandit_b2.png","70","","70","test","1","","","circle","square","17","17","17","1","0.5294117647058824","","","","","","","","","",""
"null","","887461","SARL_v6f933l72m","msl000124","freq_resp","","","img/orange_2bandit_b.png","70","img/orange_2bandit_b.png","70","test","","","","","","","","","1","","","","","","","","","","",""
"null","","887616","SARL_v6f933l72m","msl000124","fixation","","","img/fixation.png","null","","","test","","","","","","","","","","","","","","","","","","","",""
"266","","887887","SARL_v6f933l72m","msl000124","freq","","","img/orange_2bandit_b2.png","70","","70","test","1","","","circle","square","18","18","18","1","0.5555555555555556","","","","","","","","","",""
"null","","888427","SARL_v6f933l72m","msl000124","freq_resp","","","img/orange_2bandit_b.png","70","img/orange_2bandit_b.png","70","test","","","","","","","","","1","","","","","","","","","","",""
"null","","888583","SARL_v6f933l72m","msl000124","fixation","","","img/fixation.png","null","","","test","","","","","","","","","","","","","","","","","","","",""
"162","","888751","SARL_v6f933l72m","msl000124","freq","","","img/orange_2bandit_b2.png","70","","70","test","1","","","circle","square","19","19","19","1","0.5789473684210527","","","","","","","","","",""
"null","","889394","SARL_v6f933l72m","msl000124","freq_resp","","","img/orange_2bandit_b.png","70","img/orange_2bandit_b.png","70","test","","","","","","","","","1","","","","","","","","","","",""
"null","","889550","SARL_v6f933l72m","msl000124","fixation","","","img/fixation.png","null","","","test","","","","","","","","","","","","","","","","","","","",""
"290","","889845","SARL_v6f933l72m","msl000124","freq","","","img/orange_2bandit_b2.png","70","","70","test","1","","","circle","square","20","20","20","1","0.6","","","","","","","","","",""
"null","","890360","SARL_v6f933l72m","msl000124","freq_resp","","","img/orange_2bandit_b.png","70","img/orange_2bandit_b.png","70","test","","","","","","","","","1","","","","","","","","","","",""
"null","","890517","SARL_v6f933l72m","msl000124","fixation","","","img/fixation.png","null","","","test","","","","","","","","","","","","","","","","","","","",""
"306","","890828","SARL_v6f933l72m","msl000124","freq","","","img/orange_2bandit_b2.png","70","","70","test","1","","","circle","square","21","21","21","1","0.6190476190476191","","","","","","","","","",""
"null","","891328","SARL_v6f933l72m","msl000124","freq_resp","","","img/orange_2bandit_b.png","70","img/orange_2bandit_b.png","70","test","","","","","","","","","1","","","","","","","","","","",""
"null","","891484","SARL_v6f933l72m","msl000124","fixation","","","img/fixation.png","null","","","test","","","","","","","","","","","","","","","","","","","",""
"12","","891500","SARL_v6f933l72m","msl000124","freq","","","img/orange_2bandit_b2.png","70","","70","test","1","","","circle","square","22","22","22","1","0.6363636363636364","","","","","","","","","",""
"null","","892295","SARL_v6f933l72m","msl000124","freq_resp","","","img/orange_2bandit_b.png","70","img/orange_2bandit_b.png","70","test","","","","","","","","","1","","","","","","","","","","",""
"null","","892451","SARL_v6f933l72m","msl000124","fixation","","","img/fixation.png","null","","","test","","","","","","","","","","","","","","","","","","","",""
"285","","892740","SARL_v6f933l72m","msl000124","freq","","","img/orange_2bandit_b2.png","70","","70","test","1","","","circle","square","23","23","23","1","0.6521739130434783","","","","","","","","","",""
"null","","893261","SARL_v6f933l72m","msl000124","freq_resp","","","img/orange_2bandit_b.png","70","img/orange_2bandit_b.png","70","test","","","","","","","","","1","","","","","","","","","","",""
"null","","893416","SARL_v6f933l72m","msl000124","fixation","","","img/fixation.png","null","","","test","","","","","","","","","","","","","","","","","","","",""
"1287","","894707","SARL_v6f933l72m","msl000124","rl","","","img/black_2bandit_b2.png","74","","0","test","","","1","circle","square","24","","0","1","","74","0.2","0.8","0.053765115903250726","0.2","0.8","0.2","circle","1","0"
"null","","895463","SARL_v6f933l72m","msl000124","feedback","","","img/yay_L_b.png","null","","na","test","","","","","","","","","1","","74","0.2","0.8","","","","0.2","","1",""
"586","","896054","SARL_v6f933l72m","msl000124","freq","","","img/orange_2bandit_b2.png","70","","70","test","1","","","circle","square","25","24","1","2","0.6666666666666666","","","","","","","","","",""
"null","","896274","SARL_v6f933l72m","msl000124","freq_resp","","","img/orange_2bandit_b.png","70","img/orange_2bandit_b.png","70","test","","","","","","","","","2","","","","","","","","","","",""
"null","","896429","SARL_v6f933l72m","msl000124","fixation","","","img/fixation.png","null","","","test","","","","","","","","","","","","","","","","","","","",""
"332","","896766","SARL_v6f933l72m","msl000124","freq","","","img/orange_2bandit_b2.png","70","","70","test","1","","","circle","square","26","25","2","2","0.68","","","","","","","","","",""
"null","","897241","SARL_v6f933l72m","msl000124","freq_resp","","","img/orange_2bandit_b.png","70","img/orange_2bandit_b.png","70","test","","","","","","","","","2","","","","","","","","","","",""
"null","","897396","SARL_v6f933l72m","msl000124","fixation","","","img/fixation.png","null","","","test","","","","","","","","","","","","","","","","","","","",""
"292","","897694","SARL_v6f933l72m","msl000124","freq","","","img/orange_2bandit_b2.png","70","","70","test","1","","","circle","square","27","26","3","2","0.6923076923076923","","","","","","","","","",""
"null","","898207","SARL_v6f933l72m","msl000124","freq_resp","","","img/orange_2bandit_b.png","70","img/orange_2bandit_b.png","70","test","","","","","","","","","2","","","","","","","","","","",""
"null","","898363","SARL_v6f933l72m","msl000124","fixation","","","img/fixation.png","null","","","test","","","","","","","","","","","","","","","","","","","",""
"395","","898762","SARL_v6f933l72m","msl000124","freq","","","img/orange_2bandit_b2.png","70","","70","test","1","","","circle","square","28","27","4","2","0.7037037037037037","","","","","","","","","",""
"null","","899173","SARL_v6f933l72m","msl000124","freq_resp","","","img/orange_2bandit_b.png","70","img/orange_2bandit_b.png","70","test","","","","","","","","","2","","","","","","","","","","",""
"null","","899329","SARL_v6f933l72m","msl000124","fixation","","","img/fixation.png","null","","","test","","","","","","","","","","","","","","","","","","","",""
"633","","899967","SARL_v6f933l72m","msl000124","infreq","","","img/green_2bandit_b2.png","68","","68","test","1","","","circle","square","29","28","5","2","0.7142857142857143","","","","","","","","","",""
"null","","900139","SARL_v6f933l72m","msl000124","infreq_resp","","","img/green_2bandit_b.png","68","img/green_2bandit_b.png","68","test","","","","","","","","","2","","","","","","","","","","",""
"null","","900295","SARL_v6f933l72m","msl000124","fixation","","","img/fixation.png","null","","","test","","","","","","","","","","","","","","","","","","","",""
"560","","900860","SARL_v6f933l72m","msl000124","freq","","","img/orange_2bandit_b2.png","70","","70","test","1","","","circle","square","30","29","6","2","0.7241379310344828","","","","","","","","","",""
"null","","901105","SARL_v6f933l72m","msl000124","freq_resp","","","img/orange_2bandit_b.png","70","img/orange_2bandit_b.png","70","test","","","","","","","","","2","","","","","","","","","","",""
"null","","901260","SARL_v6f933l72m","msl000124","fixation","","","img/fixation.png","null","","","test","","","","","","","","","","","","","","","","","","","",""
"499","","901764","SARL_v6f933l72m","msl000124","freq","","","img/orange_2bandit_b2.png","70","","70","test","1","","","circle","square","31","30","7","2","0.7333333333333333","","","","","","","","","",""
"null","","902071","SARL_v6f933l72m","msl000124","freq_resp","","","img/orange_2bandit_b.png","70","img/orange_2bandit_b.png","70","test","","","","","","","","","2","","","","","","","","","","",""
"null","","902226","SARL_v6f933l72m","msl000124","fixation","","","img/fixation.png","null","","","test","","","","","","","","","","","","","","","","","","","",""
"431","","902663","SARL_v6f933l72m","msl000124","freq","","","img/orange_2bandit_b2.png","70","","70","test","1","","","circle","square","32","31","8","2","0.7419354838709677","","","","","","","","","",""
"null","","903038","SARL_v6f933l72m","msl000124","freq_resp","","","img/orange_2bandit_b.png","70","img/orange_2bandit_b.png","70","test","","","","","","","","","2","","","","","","","","","","",""
"null","","903193","SARL_v6f933l72m","msl000124","fixation","","","img/fixation.png","null","","","test","","","","","","","","","","","","","","","","","","","",""
"680","","903878","SARL_v6f933l72m","msl000124","freq","","","img/orange_2bandit_b2.png","70","","70","test","1","","","circle","square","33","32","9","2","0.75","","","","","","","","","",""
"null","","904004","SARL_v6f933l72m","msl000124","freq_resp","","","img/orange_2bandit_b.png","70","img/orange_2bandit_b.png","70","test","","","","","","","","","2","","","","","","","","","","",""
"null","","904159","SARL_v6f933l72m","msl000124","fixation","","","img/fixation.png","null","","","test","","","","","","","","","","","","","","","","","","","",""
"365","","904529","SARL_v6f933l72m","msl000124","freq","","","img/orange_2bandit_b2.png","70","","70","test","1","","","circle","square","34","33","10","2","0.7575757575757576","","","","","","","","","",""
"null","","904971","SARL_v6f933l72m","msl000124","freq_resp","","","img/orange_2bandit_b.png","70","img/orange_2bandit_b.png","70","test","","","","","","","","","2","","","","","","","","","","",""
"null","","905126","SARL_v6f933l72m","msl000124","fixation","","","img/fixation.png","null","","","test","","","","","","","","","","","","","","","","","","","",""
"346","","905478","SARL_v6f933l72m","msl000124","freq","","","img/orange_2bandit_b2.png","70","","70","test","1","","","circle","square","35","34","11","2","0.7647058823529411","","","","","","","","","",""
"null","","905938","SARL_v6f933l72m","msl000124","freq_resp","","","img/orange_2bandit_b.png","70","img/orange_2bandit_b.png","70","test","","","","","","","","","2","","","","","","","","","","",""
"null","","906094","SARL_v6f933l72m","msl000124","fixation","","","img/fixation.png","null","","","test","","","","","","","","","","","","","","","","","","","",""
"258","","906356","SARL_v6f933l72m","msl000124","freq","","","img/orange_2bandit_b2.png","70","","70","test","1","","","circle","square","36","35","12","2","0.7714285714285715","","","","","","","","","",""
"null","","906904","SARL_v6f933l72m","msl000124","freq_resp","","","img/orange_2bandit_b.png","70","img/orange_2bandit_b.png","70","test","","","","","","","","","2","","","","","","","","","","",""
"null","","907057","SARL_v6f933l72m","msl000124","fixation","","","img/fixation.png","null","","","test","","","","","","","","","","","","","","","","","","","",""
"480","","907542","SARL_v6f933l72m","msl000124","freq","","","img/orange_2bandit_b2.png","70","","70","test","1","","","circle","square","37","36","13","2","0.7777777777777778","","","","","","","","","",""
"null","","907869","SARL_v6f933l72m","msl000124","freq_resp","","","img/orange_2bandit_b.png","70","img/orange_2bandit_b.png","70","test","","","","","","","","","2","","","","","","","","","","",""
"null","","908025","SARL_v6f933l72m","msl000124","fixation","","","img/fixation.png","null","","","test","","","","","","","","","","","","","","","","","","","",""
"706","","908735","SARL_v6f933l72m","msl000124","infreq","","","img/green_2bandit_b2.png","68","","68","test","1","","","circle","square","38","37","14","2","0.7837837837837838","","","","","","","","","",""
"null","","908835","SARL_v6f933l72m","msl000124","infreq_resp","","","img/green_2bandit_b.png","68","img/green_2bandit_b.png","68","test","","","","","","","","","2","","","","","","","","","","",""
"null","","908990","SARL_v6f933l72m","msl000124","fixation","","","img/fixation.png","null","","","test","","","","","","","","","","","","","","","","","","","",""
"607","","909604","SARL_v6f933l72m","msl000124","freq","","","img/orange_2bandit_b2.png","70","","70","test","1","","","circle","square","39","38","15","2","0.7894736842105263","","","","","","","","","",""
"null","","909802","SARL_v6f933l72m","msl000124","freq_resp","","","img/orange_2bandit_b.png","70","img/orange_2bandit_b.png","70","test","","","","","","","","","2","","","","","","","","","","",""
"null","","909958","SARL_v6f933l72m","msl000124","fixation","","","img/fixation.png","null","","","test","","","","","","","","","","","","","","","","","","","",""
"329","","910292","SARL_v6f933l72m","msl000124","freq","","","img/orange_2bandit_b2.png","70","","70","test","1","","","circle","square","40","39","16","2","0.7948717948717948","","","","","","","","","",""
"null","","910768","SARL_v6f933l72m","msl000124","freq_resp","","","img/orange_2bandit_b.png","70","img/orange_2bandit_b.png","70","test","","","","","","","","","2","","","","","","","","","","",""
"null","","910924","SARL_v6f933l72m","msl000124","fixation","","","img/fixation.png","null","","","test","","","","","","","","","","","","","","","","","","","",""
"372","","911299","SARL_v6f933l72m","msl000124","freq","","","img/orange_2bandit_b2.png","70","","70","test","1","","","circle","square","41","40","17","2","0.8","","","","","","","","","",""
"null","","911733","SARL_v6f933l72m","msl000124","freq_resp","","","img/orange_2bandit_b.png","70","img/orange_2bandit_b.png","70","test","","","","","","","","","2","","","","","","","","","","",""
"null","","911890","SARL_v6f933l72m","msl000124","fixation","","","img/fixation.png","null","","","test","","","","","","","","","","","","","","","","","","","",""
"null","","912695","SARL_v6f933l72m","msl000124","freq","","","img/orange_2bandit_b2.png","null","","70","test","0","","","circle","square","42","41","18","2","0.7804878048780488","","","","","","","","","",""
"null","","912850","SARL_v6f933l72m","msl000124","fixation","","","img/fixation.png","null","","","test","","","","","","","","","","","","","","","","","","","",""
"618","","913474","SARL_v6f933l72m","msl000124","infreq","","","img/green_2bandit_b2.png","68","","68","test","1","","","circle","square","43","42","19","2","0.7857142857142857","","","","","","","","","",""
"null","","913661","SARL_v6f933l72m","msl000124","infreq_resp","","","img/green_2bandit_b.png","68","img/green_2bandit_b.png","68","test","","","","","","","","","2","","","","","","","","","","",""
"null","","913817","SARL_v6f933l72m","msl000124","fixation","","","img/fixation.png","null","","","test","","","","","","","","","","","","","","","","","","","",""
"null","","914623","SARL_v6f933l72m","msl000124","freq","","","img/orange_2bandit_b2.png","null","","70","test","0","","","circle","square","44","43","20","2","0.7674418604651163","","","","","","","","","",""
"null","","914779","SARL_v6f933l72m","msl000124","fixation","","","img/fixation.png","null","","","test","","","","","","","","","","","","","","","","","","","",""
"482","","915265","SARL_v6f933l72m","msl000124","freq","","","img/orange_2bandit_b2.png","70","","70","test","1","","","circle","square","45","44","21","2","0.7727272727272727","","","","","","","","","",""
"null","","915589","SARL_v6f933l72m","msl000124","freq_resp","","","img/orange_2bandit_b.png","70","img/orange_2bandit_b.png","70","test","","","","","","","","","2","","","","","","","","","","",""
"null","","915744","SARL_v6f933l72m","msl000124","fixation","","","img/fixation.png","null","","","test","","","","","","","","","","","","","","","","","","","",""
"764","","916514","SARL_v6f933l72m","msl000124","freq","","","img/orange_2bandit_b2.png","70","","70","test","1","","","circle","square","46","45","22","2","0.7777777777777778","","","","","","","","","",""
"null","","916556","SARL_v6f933l72m","msl000124","freq_resp","","","img/orange_2bandit_b.png","70","img/orange_2bandit_b.png","70","test","","","","","","","","","2","","","","","","","","","","",""
"null","","916712","SARL_v6f933l72m","msl000124","fixation","","","img/fixation.png","null","","","test","","","","","","","","","","","","","","","","","","","",""
"1053","","917770","SARL_v6f933l72m","msl000124","rl","","","img/black_2bandit_b2.png","74","","0","test","","","0","circle","square","47","","0","2","","74","0.2","0.8","0.730728496868806","0.2","0.8","0.2","circle","2","0"
"null","","918526","SARL_v6f933l72m","msl000124","feedback","","","img/boo_L_b.png","null","","na","test","","","","","","","","","2","","74","0.2","0.8","","","","0.2","","2",""
"684","","919216","SARL_v6f933l72m","msl000124","freq","","","img/orange_2bandit_b2.png","70","","70","test","1","","","circle","square","48","46","1","3","0.782608695652174","","","","","","","","","",""
"null","","919336","SARL_v6f933l72m","msl000124","freq_resp","","","img/orange_2bandit_b.png","70","img/orange_2bandit_b.png","70","test","","","","","","","","","3","","","","","","","","","","",""
"null","","919493","SARL_v6f933l72m","msl000124","fixation","","","img/fixation.png","null","","","test","","","","","","","","","","","","","","","","","","","",""
"475","","919972","SARL_v6f933l72m","msl000124","freq","","","img/orange_2bandit_b2.png","70","","70","test","1","","","circle","square","49","47","2","3","0.7872340425531915","","","","","","","","","",""
"null","","920303","SARL_v6f933l72m","msl000124","freq_resp","","","img/orange_2bandit_b.png","70","img/orange_2bandit_b.png","70","test","","","","","","","","","3","","","","","","","","","","",""
"null","","920459","SARL_v6f933l72m","msl000124","fixation","","","img/fixation.png","null","","","test","","","","","","","","","","","","","","","","","","","",""
"242","","920706","SARL_v6f933l72m","msl000124","freq","","","img/orange_2bandit_b2.png","70","","70","test","1","","","circle","square","50","48","3","3","0.7916666666666666","","","","","","","","","",""
"null","","921270","SARL_v6f933l72m","msl000124","freq_resp","","","img/orange_2bandit_b.png","70","img/orange_2bandit_b.png","70","test","","","","","","","","","3","","","","","","","","","","",""
"null","","921423","SARL_v6f933l72m","msl000124","fixation","","","img/fixation.png","null","","","test","","","","","","","","","","","","","","","","","","","",""
"467","","921895","SARL_v6f933l72m","msl000124","freq","","","img/orange_2bandit_b2.png","70","","70","test","1","","","circle","square","51","49","4","3","0.7959183673469388","","","","","","","","","",""
"null","","922234","SARL_v6f933l72m","msl000124","freq_resp","","","img/orange_2bandit_b.png","70","img/orange_2bandit_b.png","70","test","","","","","","","","","3","","","","","","","","","","",""
"null","","922391","SARL_v6f933l72m","msl000124","fixation","","","img/fixation.png","null","","","test","","","","","","","","","","","","","","","","","","","",""
"254","","922650","SARL_v6f933l72m","msl000124","freq","","","img/orange_2bandit_b2.png","70","","70","test","1","","","circle","square","52","50","5","3","0.8","","","","","","","","","",""
"null","","923201","SARL_v6f933l72m","msl000124","freq_resp","","","img/orange_2bandit_b.png","70","img/orange_2bandit_b.png","70","test","","","","","","","","","3","","","","","","","","","","",""
"null","","923358","SARL_v6f933l72m","msl000124","fixation","","","img/fixation.png","null","","","test","","","","","","","","","","","","","","","","","","","",""
"410","","923772","SARL_v6f933l72m","msl000124","freq","","","img/orange_2bandit_b2.png","70","","70","test","1","","","circle","square","53","51","6","3","0.803921568627451","","","","","","","","","",""
"null","","924167","SARL_v6f933l72m","msl000124","freq_resp","","","img/orange_2bandit_b.png","70","img/orange_2bandit_b.png","70","test","","","","","","","","","3","","","","","","","","","","",""
"null","","924323","SARL_v6f933l72m","msl000124","fixation","","","img/fixation.png","null","","","test","","","","","","","","","","","","","","","","","","","",""
"398","","924726","SARL_v6f933l72m","msl000124","infreq","","","img/green_2bandit_b2.png","68","","68","test","1","","","circle","square","54","52","7","3","0.8076923076923077","","","","","","","","","",""
"null","","925133","SARL_v6f933l72m","msl000124","infreq_resp","","","img/green_2bandit_b.png","68","img/green_2bandit_b.png","68","test","","","","","","","","","3","","","","","","","","","","",""
"null","","925288","SARL_v6f933l72m","msl000124","fixation","","","img/fixation.png","null","","","test","","","","","","","","","","","","","","","","","","","",""
"370","","925663","SARL_v6f933l72m","msl000124","freq","","","img/orange_2bandit_b2.png","68","","70","test","0","","","circle","square","55","53","8","3","0.7924528301886793","","","","","","","","","",""
"null","","926098","SARL_v6f933l72m","msl000124","freq_resp","","","img/orange_2bandit_b.png","68","img/orange_2bandit_b.png","70","test","","","","","","","","","3","","","","","","","","","","",""
"null","","926254","SARL_v6f933l72m","msl000124","fixation","","","img/fixation.png","null","","","test","","","","","","","","","","","","","","","","","","","",""
"353","","926612","SARL_v6f933l72m","msl000124","freq","","","img/orange_2bandit_b2.png","70","","70","test","1","","","circle","square","56","54","9","3","0.7962962962962963","","","","","","","","","",""
"null","","927065","SARL_v6f933l72m","msl000124","freq_resp","","","img/orange_2bandit_b.png","70","img/orange_2bandit_b.png","70","test","","","","","","","","","3","","","","","","","","","","",""
"null","","927221","SARL_v6f933l72m","msl000124","fixation","","","img/fixation.png","null","","","test","","","","","","","","","","","","","","","","","","","",""
"311","","927536","SARL_v6f933l72m","msl000124","freq","","","img/orange_2bandit_b2.png","70","","70","test","1","","","circle","square","57","55","10","3","0.8","","","","","","","","","",""
"null","","928031","SARL_v6f933l72m","msl000124","freq_resp","","","img/orange_2bandit_b.png","70","img/orange_2bandit_b.png","70","test","","","","","","","","","3","","","","","","","","","","",""
"null","","928186","SARL_v6f933l72m","msl000124","fixation","","","img/fixation.png","null","","","test","","","","","","","","","","","","","","","","","","","",""
"452","","928643","SARL_v6f933l72m","msl000124","freq","","","img/orange_2bandit_b2.png","70","","70","test","1","","","circle","square","58","56","11","3","0.8035714285714286","","","","","","","","","",""
"null","","928997","SARL_v6f933l72m","msl000124","freq_resp","","","img/orange_2bandit_b.png","70","img/orange_2bandit_b.png","70","test","","","","","","","","","3","","","","","","","","","","",""
"null","","929153","SARL_v6f933l72m","msl000124","fixation","","","img/fixation.png","null","","","test","","","","","","","","","","","","","","","","","","","",""
"291","","929448","SARL_v6f933l72m","msl000124","freq","","","img/orange_2bandit_b2.png","70","","70","test","1","","","circle","square","59","57","12","3","0.8070175438596491","","","","","","","","","",""
"null","","929962","SARL_v6f933l72m","msl000124","freq_resp","","","img/orange_2bandit_b.png","70","img/orange_2bandit_b.png","70","test","","","","","","","","","3","","","","","","","","","","",""
"null","","930118","SARL_v6f933l72m","msl000124","fixation","","","img/fixation.png","null","","","test","","","","","","","","","","","","","","","","","","","",""
"118","","930241","SARL_v6f933l72m","msl000124","freq","","","img/orange_2bandit_b2.png","70","","70","test","1","","","circle","square","60","58","13","3","0.8103448275862069","","","","","","","","","",""
"null","","930928","SARL_v6f933l72m","msl000124","freq_resp","","","img/orange_2bandit_b.png","70","img/orange_2bandit_b.png","70","test","","","","","","","","","3","","","","","","","","","","",""
"null","","931084","SARL_v6f933l72m","msl000124","fixation","","","img/fixation.png","null","","","test","","","","","","","","","","","","","","","","","","","",""
"81","","931172","SARL_v6f933l72m","msl000124","freq","","","img/orange_2bandit_b2.png","70","","70","test","1","","","circle","square","61","59","14","3","0.8135593220338984","","","","","","","","","",""
"null","","931896","SARL_v6f933l72m","msl000124","freq_resp","","","img/orange_2bandit_b.png","70","img/orange_2bandit_b.png","70","test","","","","","","","","","3","","","","","","","","","","",""
"null","","932052","SARL_v6f933l72m","msl000124","fixation","","","img/fixation.png","null","","","test","","","","","","","","","","","","","","","","","","","",""
"434","","932490","SARL_v6f933l72m","msl000124","infreq","","","img/green_2bandit_b2.png","68","","68","test","1","","","circle","square","62","60","15","3","0.8166666666666667","","","","","","","","","",""
"null","","932861","SARL_v6f933l72m","msl000124","infreq_resp","","","img/green_2bandit_b.png","68","img/green_2bandit_b.png","68","test","","","","","","","","","3","","","","","","","","","","",""
"null","","933017","SARL_v6f933l72m","msl000124","fixation","","","img/fixation.png","null","","","test","","","","","","","","","","","","","","","","","","","",""
"513","","933535","SARL_v6f933l72m","msl000124","freq","","","img/orange_2bandit_b2.png","70","","70","test","1","","","circle","square","63","61","16","3","0.819672131147541","","","","","","","","","",""
"null","","933828","SARL_v6f933l72m","msl000124","freq_resp","","","img/orange_2bandit_b.png","70","img/orange_2bandit_b.png","70","test","","","","","","","","","3","","","","","","","","","","",""
"null","","933984","SARL_v6f933l72m","msl000124","fixation","","","img/fixation.png","null","","","test","","","","","","","","","","","","","","","","","","","",""
"281","","934270","SARL_v6f933l72m","msl000124","freq","","","img/orange_2bandit_b2.png","70","","70","test","1","","","circle","square","64","62","17","3","0.8225806451612904","","","","","","","","","",""
"null","","934794","SARL_v6f933l72m","msl000124","freq_resp","","","img/orange_2bandit_b.png","70","img/orange_2bandit_b.png","70","test","","","","","","","","","3","","","","","","","","","","",""
"null","","934950","SARL_v6f933l72m","msl000124","fixation","","","img/fixation.png","null","","","test","","","","","","","","","","","","","","","","","","","",""
"280","","935235","SARL_v6f933l72m","msl000124","freq","","","img/orange_2bandit_b2.png","70","","70","test","1","","","circle","square","65","63","18","3","0.8253968253968254","","","","","","","","","",""
"null","","935760","SARL_v6f933l72m","msl000124","freq_resp","","","img/orange_2bandit_b.png","70","img/orange_2bandit_b.png","70","test","","","","","","","","","3","","","","","","","","","","",""
"null","","935917","SARL_v6f933l72m","msl000124","fixation","","","img/fixation.png","null","","","test","","","","","","","","","","","","","","","","","","","",""
"187","","936108","SARL_v6f933l72m","msl000124","freq","","","img/orange_2bandit_b2.png","70","","70","test","1","","","circle","square","66","64","19","3","0.828125","","","","","","","","","",""
"null","","936728","SARL_v6f933l72m","msl000124","freq_resp","","","img/orange_2bandit_b.png","70","img/orange_2bandit_b.png","70","test","","","","","","","","","3","","","","","","","","","","",""
"null","","936883","SARL_v6f933l72m","msl000124","fixation","","","img/fixation.png","null","","","test","","","","","","","","","","","","","","","","","","","",""
"94","","936982","SARL_v6f933l72m","msl000124","freq","","","img/orange_2bandit_b2.png","70","","70","test","1","","","circle","square","67","65","20","3","0.8307692307692308","","","","","","","","","",""
"null","","937694","SARL_v6f933l72m","msl000124","freq_resp","","","img/orange_2bandit_b.png","70","img/orange_2bandit_b.png","70","test","","","","","","","","","3","","","","","","","","","","",""
"null","","937850","SARL_v6f933l72m","msl000124","fixation","","","img/fixation.png","null","","","test","","","","","","","","","","","","","","","","","","","",""
"720","","938576","SARL_v6f933l72m","msl000124","rl","","","img/black_2bandit_b2.png","74","","0","test","","","0","circle","square","68","","0","3","","74","0.2","0.8","0.9119900071571074","0.2","0.8","0.2","circle","3","0"
"null","","939332","SARL_v6f933l72m","msl000124","feedback","","","img/boo_L_b.png","null","","na","test","","","","","","","","","3","","74","0.2","0.8","","","","0.2","","3",""
"490","","939826","SARL_v6f933l72m","msl000124","freq","","","img/orange_2bandit_b2.png","70","","70","test","1","","","circle","square","69","66","1","4","0.8333333333333334","","","","","","","","","",""
"null","","940143","SARL_v6f933l72m","msl000124","freq_resp","","","img/orange_2bandit_b.png","70","img/orange_2bandit_b.png","70","test","","","","","","","","","4","","","","","","","","","","",""
"null","","940298","SARL_v6f933l72m","msl000124","fixation","","","img/fixation.png","null","","","test","","","","","","","","","","","","","","","","","","","",""
"574","","940878","SARL_v6f933l72m","msl000124","freq","","","img/orange_2bandit_b2.png","68","","70","test","0","","","circle","square","70","67","2","4","0.8208955223880597","","","","","","","","","",""
"null","","941110","SARL_v6f933l72m","msl000124","freq_resp","","","img/orange_2bandit_b.png","68","img/orange_2bandit_b.png","70","test","","","","","","","","","4","","","","","","","","","","",""
"null","","941264","SARL_v6f933l72m","msl000124","fixation","","","img/fixation.png","null","","","test","","","","","","","","","","","","","","","","","","","",""
"701","","941970","SARL_v6f933l72m","msl000124","infreq","","","img/green_2bandit_b2.png","68","","68","test","1","","","circle","square","71","68","3","4","0.8235294117647058","","","","","","","","","",""
"null","","942075","SARL_v6f933l72m","msl000124","infreq_resp","","","img/green_2bandit_b.png","68","img/green_2bandit_b.png","68","test","","","","","","","","","4","","","","","","","","","","",""
"null","","942232","SARL_v6f933l72m","msl000124","fixation","","","img/fixation.png","null","","","test","","","","","","","","","","","","","","","","","","","",""
"431","","942668","SARL_v6f933l72m","msl000124","freq","","","img/orange_2bandit_b2.png","70","","70","test","1","","","circle","square","72","69","4","4","0.8260869565217391","","","","","","","","","",""
"null","","943043","SARL_v6f933l72m","msl000124","freq_resp","","","img/orange_2bandit_b.png","70","img/orange_2bandit_b.png","70","test","","","","","","","","","4","","","","","","","","","","",""
"null","","943199","SARL_v6f933l72m","msl000124","fixation","","","img/fixation.png","null","","","test","","","","","","","","","","","","","","","","","","","",""
"303","","943506","SARL_v6f933l72m","msl000124","freq","","","img/orange_2bandit_b2.png","70","","70","test","1","","","circle","square","73","70","5","4","0.8285714285714286","","","","","","","","","",""
"null","","944009","SARL_v6f933l72m","msl000124","freq_resp","","","img/orange_2bandit_b.png","70","img/orange_2bandit_b.png","70","test","","","","","","","","","4","","","","","","","","","","",""
"null","","944166","SARL_v6f933l72m","msl000124","fixation","","","img/fixation.png","null","","","test","","","","","","","","","","","","","","","","","","","",""
"325","","944496","SARL_v6f933l72m","msl000124","infreq","","","img/green_2bandit_b2.png","70","","68","test","0","","","circle","square","74","71","6","4","0.8169014084507042","","","","","","","","","",""
"null","","944978","SARL_v6f933l72m","msl000124","infreq_resp","","","img/green_2bandit_b.png","70","img/green_2bandit_b.png","68","test","","","","","","","","","4","","","","","","","","","","",""
"null","","945133","SARL_v6f933l72m","msl000124","fixation","","","img/fixation.png","null","","","test","","","","","","","","","","","","","","","","","","","",""
"562","","945700","SARL_v6f933l72m","msl000124","freq","","","img/orange_2bandit_b2.png","70","","70","test","1","","","circle","square","75","72","7","4","0.8194444444444444","","","","","","","","","",""
"null","","945942","SARL_v6f933l72m","msl000124","freq_resp","","","img/orange_2bandit_b.png","70","img/orange_2bandit_b.png","70","test","","","","","","","","","4","","","","","","","","","","",""
"null","","946097","SARL_v6f933l72m","msl000124","fixation","","","img/fixation.png","null","","","test","","","","","","","","","","","","","","","","","","","",""
"391","","946493","SARL_v6f933l72m","msl000124","freq","","","img/orange_2bandit_b2.png","70","","70","test","1","","","circle","square","76","73","8","4","0.821917808219178","","","","","","","","","",""
"null","","946908","SARL_v6f933l72m","msl000124","freq_resp","","","img/orange_2bandit_b.png","70","img/orange_2bandit_b.png","70","test","","","","","","","","","4","","","","","","","","","","",""
"null","","947064","SARL_v6f933l72m","msl000124","fixation","","","img/fixation.png","null","","","test","","","","","","","","","","","","","","","","","","","",""
"428","","947498","SARL_v6f933l72m","msl000124","freq","","","img/orange_2bandit_b2.png","70","","70","test","1","","","circle","square","77","74","9","4","0.8243243243243243","","","","","","","","","",""
"null","","947876","SARL_v6f933l72m","msl000124","freq_resp","","","img/orange_2bandit_b.png","70","img/orange_2bandit_b.png","70","test","","","","","","","","","4","","","","","","","","","","",""
"null","","948032","SARL_v6f933l72m","msl000124","fixation","","","img/fixation.png","null","","","test","","","","","","","","","","","","","","","","","","","",""
"376","","948414","SARL_v6f933l72m","msl000124","freq","","","img/orange_2bandit_b2.png","70","","70","test","1","","","circle","square","78","75","10","4","0.8266666666666667","","","","","","","","","",""
"null","","948844","SARL_v6f933l72m","msl000124","freq_resp","","","img/orange_2bandit_b.png","70","img/orange_2bandit_b.png","70","test","","","","","","","","","4","","","","","","","","","","",""
"null","","948999","SARL_v6f933l72m","msl000124","fixation","","","img/fixation.png","null","","","test","","","","","","","","","","","","","","","","","","","",""
"401","","949405","SARL_v6f933l72m","msl000124","freq","","","img/orange_2bandit_b2.png","70","","70","test","1","","","circle","square","79","76","11","4","0.8289473684210527","","","","","","","","","",""
"null","","949810","SARL_v6f933l72m","msl000124","freq_resp","","","img/orange_2bandit_b.png","70","img/orange_2bandit_b.png","70","test","","","","","","","","","4","","","","","","","","","","",""
"null","","949965","SARL_v6f933l72m","msl000124","fixation","","","img/fixation.png","null","","","test","","","","","","","","","","","","","","","","","","","",""
"323","","950292","SARL_v6f933l72m","msl000124","freq","","","img/orange_2bandit_b2.png","70","","70","test","1","","","circle","square","80","77","12","4","0.8311688311688312","","","","","","","","","",""
"null","","950774","SARL_v6f933l72m","msl000124","freq_resp","","","img/orange_2bandit_b.png","70","img/orange_2bandit_b.png","70","test","","","","","","","","","4","","","","","","","","","","",""
"null","","950931","SARL_v6f933l72m","msl000124","fixation","","","img/fixation.png","null","","","test","","","","","","","","","","","","","","","","","","","",""
"349","","951285","SARL_v6f933l72m","msl000124","freq","","","img/orange_2bandit_b2.png","70","","70","test","1","","","circle","square","81","78","13","4","0.8333333333333334","","","","","","","","","",""
"null","","951743","SARL_v6f933l72m","msl000124","freq_resp","","","img/orange_2bandit_b.png","70","img/orange_2bandit_b.png","70","test","","","","","","","","","4","","","","","","","","","","",""
"null","","951898","SARL_v6f933l72m","msl000124","fixation","","","img/fixation.png","null","","","test","","","","","","","","","","","","","","","","","","","",""
"533","","952436","SARL_v6f933l72m","msl000124","freq","","","img/orange_2bandit_b2.png","70","","70","test","1","","","circle","square","82","79","14","4","0.8354430379746836","","","","","","","","","",""
"null","","952709","SARL_v6f933l72m","msl000124","freq_resp","","","img/orange_2bandit_b.png","70","img/orange_2bandit_b.png","70","test","","","","","","","","","4","","","","","","","","","","",""
"null","","952865","SARL_v6f933l72m","msl000124","fixation","","","img/fixation.png","null","","","test","","","","","","","","","","","","","","","","","","","",""
"363","","953232","SARL_v6f933l72m","msl000124","freq","","","img/orange_2bandit_b2.png","70","","70","test","1","","","circle","square","83","80","15","4","0.8375","","","","","","","","","",""
"null","","953675","SARL_v6f933l72m","msl000124","freq_resp","","","img/orange_2bandit_b.png","70","img/orange_2bandit_b.png","70","test","","","","","","","","","4","","","","","","","","","","",""
"null","","953830","SARL_v6f933l72m","msl000124","fixation","","","img/fixation.png","null","","","test","","","","","","","","","","","","","","","","","","","",""
"390","","954226","SARL_v6f933l72m","msl000124","freq","","","img/orange_2bandit_b2.png","70","","70","test","1","","","circle","square","84","81","16","4","0.8395061728395061","","","","","","","","","",""
"null","","954642","SARL_v6f933l72m","msl000124","freq_resp","","","img/orange_2bandit_b.png","70","img/orange_2bandit_b.png","70","test","","","","","","","","","4","","","","","","","","","","",""
"null","","954797","SARL_v6f933l72m","msl000124","fixation","","","img/fixation.png","null","","","test","","","","","","","","","","","","","","","","","","","",""
"419","","955221","SARL_v6f933l72m","msl000124","infreq","","","img/green_2bandit_b2.png","68","","68","test","1","","","circle","square","85","82","17","4","0.8414634146341463","","","","","","","","","",""
"null","","955607","SARL_v6f933l72m","msl000124","infreq_resp","","","img/green_2bandit_b.png","68","img/green_2bandit_b.png","68","test","","","","","","","","","4","","","","","","","","","","",""
"null","","955763","SARL_v6f933l72m","msl000124","fixation","","","img/fixation.png","null","","","test","","","","","","","","","","","","","","","","","","","",""
"414","","956183","SARL_v6f933l72m","msl000124","freq","","","img/orange_2bandit_b2.png","70","","70","test","1","","","circle","square","86","83","18","4","0.8433734939759037","","","","","","","","","",""
"null","","956576","SARL_v6f933l72m","msl000124","freq_resp","","","img/orange_2bandit_b.png","70","img/orange_2bandit_b.png","70","test","","","","","","","","","4","","","","","","","","","","",""
"null","","956730","SARL_v6f933l72m","msl000124","fixation","","","img/fixation.png","null","","","test","","","","","","","","","","","","","","","","","","","",""
"424","","957158","SARL_v6f933l72m","msl000124","freq","","","img/orange_2bandit_b2.png","70","","70","test","1","","","circle","square","87","84","19","4","0.8452380952380952","","","","","","","","","",""
"null","","957539","SARL_v6f933l72m","msl000124","freq_resp","","","img/orange_2bandit_b.png","70","img/orange_2bandit_b.png","70","test","","","","","","","","","4","","","","","","","","","","",""
"null","","957695","SARL_v6f933l72m","msl000124","fixation","","","img/fixation.png","null","","","test","","","","","","","","","","","","","","","","","","","",""
"407","","958105","SARL_v6f933l72m","msl000124","freq","","","img/orange_2bandit_b2.png","70","","70","test","1","","","circle","square","88","85","20","4","0.8470588235294118","","","","","","","","","",""
"null","","958504","SARL_v6f933l72m","msl000124","freq_resp","","","img/orange_2bandit_b.png","70","img/orange_2bandit_b.png","70","test","","","","","","","","","4","","","","","","","","","","",""
"null","","958659","SARL_v6f933l72m","msl000124","fixation","","","img/fixation.png","null","","","test","","","","","","","","","","","","","","","","","","","",""
"325","","958988","SARL_v6f933l72m","msl000124","freq","","","img/orange_2bandit_b2.png","70","","70","test","1","","","circle","square","89","86","21","4","0.8488372093023255","","","","","","","","","",""
"null","","959469","SARL_v6f933l72m","msl000124","freq_resp","","","img/orange_2bandit_b.png","70","img/orange_2bandit_b.png","70","test","","","","","","","","","4","","","","","","","","","","",""
"null","","959625","SARL_v6f933l72m","msl000124","fixation","","","img/fixation.png","null","","","test","","","","","","","","","","","","","","","","","","","",""
"805","","960434","SARL_v6f933l72m","msl000124","rl","","","img/black_2bandit_b2.png","74","","0","test","","","0","circle","square","90","","0","4","","74","0.2","0.8","0.5920247377002436","0.2","0.8","0.2","circle","4","0"
"null","","961190","SARL_v6f933l72m","msl000124","feedback","","","img/boo_L_b.png","null","","na","test","","","","","","","","","4","","74","0.2","0.8","","","","0.2","","4",""
"null","","961995","SARL_v6f933l72m","msl000124","freq","","","img/orange_2bandit_b2.png","null","","70","test","0","","","circle","square","91","87","1","5","0.8390804597701149","","","","","","","","","",""
"null","","962150","SARL_v6f933l72m","msl000124","fixation","","","img/fixation.png","null","","","test","","","","","","","","","","","","","","","","","","","",""
"247","","962402","SARL_v6f933l72m","msl000124","freq","","","img/orange_2bandit_b2.png","70","","70","test","1","","","circle","square","92","88","2","5","0.8409090909090909","","","","","","","","","",""
"null","","962961","SARL_v6f933l72m","msl000124","freq_resp","","","img/orange_2bandit_b.png","70","img/orange_2bandit_b.png","70","test","","","","","","","","","5","","","","","","","","","","",""
"null","","963116","SARL_v6f933l72m","msl000124","fixation","","","img/fixation.png","null","","","test","","","","","","","","","","","","","","","","","","","",""
"312","","963433","SARL_v6f933l72m","msl000124","freq","","","img/orange_2bandit_b2.png","70","","70","test","1","","","circle","square","93","89","3","5","0.8426966292134831","","","","","","","","","",""
"null","","963928","SARL_v6f933l72m","msl000124","freq_resp","","","img/orange_2bandit_b.png","70","img/orange_2bandit_b.png","70","test","","","","","","","","","5","","","","","","","","","","",""
"null","","964083","SARL_v6f933l72m","msl000124","fixation","","","img/fixation.png","null","","","test","","","","","","","","","","","","","","","","","","","",""
"638","","964725","SARL_v6f933l72m","msl000124","infreq","","","img/green_2bandit_b2.png","68","","68","test","1","","","circle","square","94","90","4","5","0.8444444444444444","","","","","","","","","",""
"null","","964892","SARL_v6f933l72m","msl000124","infreq_resp","","","img/green_2bandit_b.png","68","img/green_2bandit_b.png","68","test","","","","","","","","","5","","","","","","","","","","",""
"null","","965048","SARL_v6f933l72m","msl000124","fixation","","","img/fixation.png","null","","","test","","","","","","","","","","","","","","","","","","","",""
"480","","965533","SARL_v6f933l72m","msl000124","freq","","","img/orange_2bandit_b2.png","70","","70","test","1","","","circle","square","95","91","5","5","0.8461538461538461","","","","","","","","","",""
"null","","965859","SARL_v6f933l72m","msl000124","freq_resp","","","img/orange_2bandit_b.png","70","img/orange_2bandit_b.png","70","test","","","","","","","","","5","","","","","","","","","","",""
"null","","966015","SARL_v6f933l72m","msl000124","fixation","","","img/fixation.png","null","","","test","","","","","","","","","","","","","","","","","","","",""
"297","","966317","SARL_v6f933l72m","msl000124","freq","","","img/orange_2bandit_b2.png","70","","70","test","1","","","circle","square","96","92","6","5","0.8478260869565217","","","","","","","","","",""
"null","","966826","SARL_v6f933l72m","msl000124","freq_resp","","","img/orange_2bandit_b.png","70","img/orange_2bandit_b.png","70","test","","","","","","","","","5","","","","","","","","","","",""
"null","","966982","SARL_v6f933l72m","msl000124","fixation","","","img/fixation.png","null","","","test","","","","","","","","","","","","","","","","","","","",""
"304","","967291","SARL_v6f933l72m","msl000124","freq","","","img/orange_2bandit_b2.png","70","","70","test","1","","","circle","square","97","93","7","5","0.8494623655913979","","","","","","","","","",""
"null","","967792","SARL_v6f933l72m","msl000124","freq_resp","","","img/orange_2bandit_b.png","70","img/orange_2bandit_b.png","70","test","","","","","","","","","5","","","","","","","","","","",""
"null","","967948","SARL_v6f933l72m","msl000124","fixation","","","img/fixation.png","null","","","test","","","","","","","","","","","","","","","","","","","",""
"590","","968542","SARL_v6f933l72m","msl000124","freq","","","img/orange_2bandit_b2.png","70","","70","test","1","","","circle","square","98","94","8","5","0.851063829787234","","","","","","","","","",""
"null","","968757","SARL_v6f933l72m","msl000124","freq_resp","","","img/orange_2bandit_b.png","70","img/orange_2bandit_b.png","70","test","","","","","","","","","5","","","","","","","","","","",""
"null","","968912","SARL_v6f933l72m","msl000124","fixation","","","img/fixation.png","null","","","test","","","","","","","","","","","","","","","","","","","",""
"301","","969218","SARL_v6f933l72m","msl000124","freq","","","img/orange_2bandit_b2.png","70","","70","test","1","","","circle","square","99","95","9","5","0.8526315789473684","","","","","","","","","",""
"null","","969723","SARL_v6f933l72m","msl000124","freq_resp","","","img/orange_2bandit_b.png","70","img/orange_2bandit_b.png","70","test","","","","","","","","","5","","","","","","","","","","",""
"null","","969879","SARL_v6f933l72m","msl000124","fixation","","","img/fixation.png","null","","","test","","","","","","","","","","","","","","","","","","","",""
"304","","970188","SARL_v6f933l72m","msl000124","freq","","","img/orange_2bandit_b2.png","70","","70","test","1","","","circle","square","100","96","10","5","0.8541666666666666","","","","","","","","","",""
"null","","970689","SARL_v6f933l72m","msl000124","freq_resp","","","img/orange_2bandit_b.png","70","img/orange_2bandit_b.png","70","test","","","","","","","","","5","","","","","","","","","","",""
"null","","970845","SARL_v6f933l72m","msl000124","fixation","","","img/fixation.png","null","","","test","","","","","","","","","","","","","","","","","","","",""
"331","","971182","SARL_v6f933l72m","msl000124","freq","","","img/orange_2bandit_b2.png","70","","70","test","1","","","circle","square","101","97","11","5","0.8556701030927835","","","","","","","","","",""
"null","","971657","SARL_v6f933l72m","msl000124","freq_resp","","","img/orange_2bandit_b.png","70","img/orange_2bandit_b.png","70","test","","","","","","","","","5","","","","","","","","","","",""
"null","","971813","SARL_v6f933l72m","msl000124","fixation","","","img/fixation.png","null","","","test","","","","","","","","","","","","","","","","","","","",""
"441","","972259","SARL_v6f933l72m","msl000124","infreq","","","img/green_2bandit_b2.png","68","","68","test","1","","","circle","square","102","98","12","5","0.8571428571428571","","","","","","","","","",""
"null","","972624","SARL_v6f933l72m","msl000124","infreq_resp","","","img/green_2bandit_b.png","68","img/green_2bandit_b.png","68","test","","","","","","","","","5","","","","","","","","","","",""
"null","","972780","SARL_v6f933l72m","msl000124","fixation","","","img/fixation.png","null","","","test","","","","","","","","","","","","","","","","","","","",""
"618","","973403","SARL_v6f933l72m","msl000124","freq","","","img/orange_2bandit_b2.png","70","","70","test","1","","","circle","square","103","99","13","5","0.8585858585858586","","","","","","","","","",""
"null","","973591","SARL_v6f933l72m","msl000124","freq_resp","","","img/orange_2bandit_b.png","70","img/orange_2bandit_b.png","70","test","","","","","","","","","5","","","","","","","","","","",""
"null","","973746","SARL_v6f933l72m","msl000124","fixation","","","img/fixation.png","null","","","test","","","","","","","","","","","","","","","","","","","",""
"291","","974042","SARL_v6f933l72m","msl000124","freq","","","img/orange_2bandit_b2.png","70","","70","test","1","","","circle","square","104","100","14","5","0.86","","","","","","","","","",""
"null","","974557","SARL_v6f933l72m","msl000124","freq_resp","","","img/orange_2bandit_b.png","70","img/orange_2bandit_b.png","70","test","","","","","","","","","5","","","","","","","","","","",""
"null","","974712","SARL_v6f933l72m","msl000124","fixation","","","img/fixation.png","null","","","test","","","","","","","","","","","","","","","","","","","",""
"304","","975021","SARL_v6f933l72m","msl000124","freq","","","img/orange_2bandit_b2.png","70","","70","test","1","","","circle","square","105","101","15","5","0.8613861386138614","","","","","","","","","",""
"null","","975523","SARL_v6f933l72m","msl000124","freq_resp","","","img/orange_2bandit_b.png","70","img/orange_2bandit_b.png","70","test","","","","","","","","","5","","","","","","","","","","",""
"null","","975677","SARL_v6f933l72m","msl000124","fixation","","","img/fixation.png","null","","","test","","","","","","","","","","","","","","","","","","","",""
"327","","976009","SARL_v6f933l72m","msl000124","freq","","","img/orange_2bandit_b2.png","70","","70","test","1","","","circle","square","106","102","16","5","0.8627450980392157","","","","","","","","","",""
"null","","976487","SARL_v6f933l72m","msl000124","freq_resp","","","img/orange_2bandit_b.png","70","img/orange_2bandit_b.png","70","test","","","","","","","","","5","","","","","","","","","","",""
"null","","976644","SARL_v6f933l72m","msl000124","fixation","","","img/fixation.png","null","","","test","","","","","","","","","","","","","","","","","","","",""
"344","","976993","SARL_v6f933l72m","msl000124","freq","","","img/orange_2bandit_b2.png","70","","70","test","1","","","circle","square","107","103","17","5","0.8640776699029126","","","","","","","","","",""
"null","","977454","SARL_v6f933l72m","msl000124","freq_resp","","","img/orange_2bandit_b.png","70","img/orange_2bandit_b.png","70","test","","","","","","","","","5","","","","","","","","","","",""
"null","","977611","SARL_v6f933l72m","msl000124","fixation","","","img/fixation.png","null","","","test","","","","","","","","","","","","","","","","","","","",""
"314","","977931","SARL_v6f933l72m","msl000124","freq","","","img/orange_2bandit_b2.png","70","","70","test","1","","","circle","square","108","104","18","5","0.8653846153846154","","","","","","","","","",""
"null","","978423","SARL_v6f933l72m","msl000124","freq_resp","","","img/orange_2bandit_b.png","70","img/orange_2bandit_b.png","70","test","","","","","","","","","5","","","","","","","","","","",""
"null","","978578","SARL_v6f933l72m","msl000124","fixation","","","img/fixation.png","null","","","test","","","","","","","","","","","","","","","","","","","",""
"null","","979383","SARL_v6f933l72m","msl000124","infreq","","","img/green_2bandit_b2.png","null","","68","test","0","","","circle","square","109","105","19","5","0.8571428571428571","","","","","","","","","",""
"null","","979538","SARL_v6f933l72m","msl000124","fixation","","","img/fixation.png","null","","","test","","","","","","","","","","","","","","","","","","","",""
"1","","979543","SARL_v6f933l72m","msl000124","freq","","","img/orange_2bandit_b2.png","68","","70","test","0","","","circle","square","110","106","20","5","0.8490566037735849","","","","","","","","","",""
"null","","980348","SARL_v6f933l72m","msl000124","freq_resp","","","img/orange_2bandit_b.png","68","img/orange_2bandit_b.png","70","test","","","","","","","","","5","","","","","","","","","","",""
"null","","980503","SARL_v6f933l72m","msl000124","fixation","","","img/fixation.png","null","","","test","","","","","","","","","","","","","","","","","","","",""
"299","","980807","SARL_v6f933l72m","msl000124","freq","","","img/orange_2bandit_b2.png","70","","70","test","1","","","circle","square","111","107","21","5","0.8504672897196262","","","","","","","","","",""
"null","","981314","SARL_v6f933l72m","msl000124","freq_resp","","","img/orange_2bandit_b.png","70","img/orange_2bandit_b.png","70","test","","","","","","","","","5","","","","","","","","","","",""
"null","","981469","SARL_v6f933l72m","msl000124","fixation","","","img/fixation.png","null","","","test","","","","","","","","","","","","","","","","","","","",""
"262","","981736","SARL_v6f933l72m","msl000124","infreq","","","img/green_2bandit_b2.png","70","","68","test","0","","","circle","square","112","108","22","5","0.8425925925925926","","","","","","","","","",""
"null","","982281","SARL_v6f933l72m","msl000124","infreq_resp","","","img/green_2bandit_b.png","70","img/green_2bandit_b.png","68","test","","","","","","","","","5","","","","","","","","","","",""
"null","","982437","SARL_v6f933l72m","msl000124","fixation","","","img/fixation.png","null","","","test","","","","","","","","","","","","","","","","","","","",""
"318","","982759","SARL_v6f933l72m","msl000124","freq","","","img/orange_2bandit_b2.png","70","","70","test","1","","","circle","square","113","109","23","5","0.8440366972477065","","","","","","","","","",""
"null","","983247","SARL_v6f933l72m","msl000124","freq_resp","","","img/orange_2bandit_b.png","70","img/orange_2bandit_b.png","70","test","","","","","","","","","5","","","","","","","","","","",""
"null","","983404","SARL_v6f933l72m","msl000124","fixation","","","img/fixation.png","null","","","test","","","","","","","","","","","","","","","","","","","",""
"291","","983699","SARL_v6f933l72m","msl000124","freq","","","img/orange_2bandit_b2.png","70","","70","test","1","","","circle","square","114","110","24","5","0.8454545454545455","","","","","","","","","",""
"null","","984214","SARL_v6f933l72m","msl000124","freq_resp","","","img/orange_2bandit_b.png","70","img/orange_2bandit_b.png","70","test","","","","","","","","","5","","","","","","","","","","",""
"null","","984371","SARL_v6f933l72m","msl000124","fixation","","","img/fixation.png","null","","","test","","","","","","","","","","","","","","","","","","","",""
"271","","984647","SARL_v6f933l72m","msl000124","freq","","","img/orange_2bandit_b2.png","70","","70","test","1","","","circle","square","115","111","25","5","0.8468468468468469","","","","","","","","","",""
"null","","985180","SARL_v6f933l72m","msl000124","freq_resp","","","img/orange_2bandit_b.png","70","img/orange_2bandit_b.png","70","test","","","","","","","","","5","","","","","","","","","","",""
"null","","985335","SARL_v6f933l72m","msl000124","fixation","","","img/fixation.png","null","","","test","","","","","","","","","","","","","","","","","","","",""
"647","","985989","SARL_v6f933l72m","msl000124","rl","","","img/black_2bandit_b2.png","74","","0","test","","","0","circle","square","116","","0","5","","74","0.2","0.8","0.8796340769180077","0.2","0.8","0.2","circle","5","0"
"null","","986745","SARL_v6f933l72m","msl000124","feedback","","","img/boo_L_b.png","null","","na","test","","","","","","","","","5","","74","0.2","0.8","","","","0.2","","5",""
"483","","987232","SARL_v6f933l72m","msl000124","freq","","","img/orange_2bandit_b2.png","70","","70","test","1","","","circle","square","117","112","1","6","0.8482142857142857","","","","","","","","","",""
"null","","987556","SARL_v6f933l72m","msl000124","freq_resp","","","img/orange_2bandit_b.png","70","img/orange_2bandit_b.png","70","test","","","","","","","","","6","","","","","","","","","","",""
"null","","987712","SARL_v6f933l72m","msl000124","fixation","","","img/fixation.png","null","","","test","","","","","","","","","","","","","","","","","","","",""
"298","","988014","SARL_v6f933l72m","msl000124","freq","","","img/orange_2bandit_b2.png","70","","70","test","1","","","circle","square","118","113","2","6","0.8495575221238938","","","","","","","","","",""
"null","","988522","SARL_v6f933l72m","msl000124","freq_resp","","","img/orange_2bandit_b.png","70","img/orange_2bandit_b.png","70","test","","","","","","","","","6","","","","","","","","","","",""
"null","","988677","SARL_v6f933l72m","msl000124","fixation","","","img/fixation.png","null","","","test","","","","","","","","","","","","","","","","","","","",""
"391","","989073","SARL_v6f933l72m","msl000124","freq","","","img/orange_2bandit_b2.png","70","","70","test","1","","","circle","square","119","114","3","6","0.8508771929824561","","","","","","","","","",""
"null","","989489","SARL_v6f933l72m","msl000124","freq_resp","","","img/orange_2bandit_b.png","70","img/orange_2bandit_b.png","70","test","","","","","","","","","6","","","","","","","","","","",""
"null","","989644","SARL_v6f933l72m","msl000124","fixation","","","img/fixation.png","null","","","test","","","","","","","","","","","","","","","","","","","",""
"302","","989952","SARL_v6f933l72m","msl000124","freq","","","img/orange_2bandit_b2.png","70","","70","test","1","","","circle","square","120","115","4","6","0.8521739130434782","","","","","","","","","",""
"null","","990455","SARL_v6f933l72m","msl000124","freq_resp","","","img/orange_2bandit_b.png","70","img/orange_2bandit_b.png","70","test","","","","","","","","","6","","","","","","","","","","",""
"null","","990611","SARL_v6f933l72m","msl000124","fixation","","","img/fixation.png","null","","","test","","","","","","","","","","","","","","","","","","","",""
"320","","990936","SARL_v6f933l72m","msl000124","freq","","","img/orange_2bandit_b2.png","70","","70","test","1","","","circle","square","121","116","5","6","0.853448275862069","","","","","","","","","",""
"null","","991422","SARL_v6f933l72m","msl000124","freq_resp","","","img/orange_2bandit_b.png","70","img/orange_2bandit_b.png","70","test","","","","","","","","","6","","","","","","","","","","",""
"null","","991577","SARL_v6f933l72m","msl000124","fixation","","","img/fixation.png","null","","","test","","","","","","","","","","","","","","","","","","","",""
"449","","992032","SARL_v6f933l72m","msl000124","freq","","","img/orange_2bandit_b2.png","70","","70","test","1","","","circle","square","122","117","6","6","0.8547008547008547","","","","","","","","","",""
"null","","992390","SARL_v6f933l72m","msl000124","freq_resp","","","img/orange_2bandit_b.png","70","img/orange_2bandit_b.png","70","test","","","","","","","","","6","","","","","","","","","","",""
"null","","992544","SARL_v6f933l72m","msl000124","fixation","","","img/fixation.png","null","","","test","","","","","","","","","","","","","","","","","","","",""
"344","","992894","SARL_v6f933l72m","msl000124","freq","","","img/orange_2bandit_b2.png","70","","70","test","1","","","circle","square","123","118","7","6","0.8559322033898306","","","","","","","","","",""
"null","","993356","SARL_v6f933l72m","msl000124","freq_resp","","","img/orange_2bandit_b.png","70","img/orange_2bandit_b.png","70","test","","","","","","","","","6","","","","","","","","","","",""
"null","","993513","SARL_v6f933l72m","msl000124","fixation","","","img/fixation.png","null","","","test","","","","","","","","","","","","","","","","","","","",""
"295","","993813","SARL_v6f933l72m","msl000124","freq","","","img/orange_2bandit_b2.png","70","","70","test","1","","","circle","square","124","119","8","6","0.8571428571428571","","","","","","","","","",""
"null","","994324","SARL_v6f933l72m","msl000124","freq_resp","","","img/orange_2bandit_b.png","70","img/orange_2bandit_b.png","70","test","","","","","","","","","6","","","","","","","","","","",""
"null","","994480","SARL_v6f933l72m","msl000124","fixation","","","img/fixation.png","null","","","test","","","","","","","","","","","","","","","","","","","",""
"304","","994790","SARL_v6f933l72m","msl000124","freq","","","img/orange_2bandit_b2.png","70","","70","test","1","","","circle","square","125","120","9","6","0.8583333333333333","","","","","","","","","",""
"null","","995292","SARL_v6f933l72m","msl000124","freq_resp","","","img/orange_2bandit_b.png","70","img/orange_2bandit_b.png","70","test","","","","","","","","","6","","","","","","","","","","",""
"null","","995448","SARL_v6f933l72m","msl000124","fixation","","","img/fixation.png","null","","","test","","","","","","","","","","","","","","","","","","","",""
"268","","995720","SARL_v6f933l72m","msl000124","freq","","","img/orange_2bandit_b2.png","70","","70","test","1","","","circle","square","126","121","10","6","0.859504132231405","","","","","","","","","",""
"null","","996258","SARL_v6f933l72m","msl000124","freq_resp","","","img/orange_2bandit_b.png","70","img/orange_2bandit_b.png","70","test","","","","","","","","","6","","","","","","","","","","",""
"null","","996413","SARL_v6f933l72m","msl000124","fixation","","","img/fixation.png","null","","","test","","","","","","","","","","","","","","","","","","","",""
"270","","996688","SARL_v6f933l72m","msl000124","freq","","","img/orange_2bandit_b2.png","70","","70","test","1","","","circle","square","127","122","11","6","0.860655737704918","","","","","","","","","",""
"null","","997224","SARL_v6f933l72m","msl000124","freq_resp","","","img/orange_2bandit_b.png","70","img/orange_2bandit_b.png","70","test","","","","","","","","","6","","","","","","","","","","",""
"null","","997379","SARL_v6f933l72m","msl000124","fixation","","","img/fixation.png","null","","","test","","","","","","","","","","","","","","","","","","","",""
"103","","997487","SARL_v6f933l72m","msl000124","freq","","","img/orange_2bandit_b2.png","70","","70","test","1","","","circle","square","128","123","12","6","0.8617886178861789","","","","","","","","","",""
"null","","998190","SARL_v6f933l72m","msl000124","freq_resp","","","img/orange_2bandit_b.png","70","img/orange_2bandit_b.png","70","test","","","","","","","","","6","","","","","","","","","","",""
"null","","998345","SARL_v6f933l72m","msl000124","fixation","","","img/fixation.png","null","","","test","","","","","","","","","","","","","","","","","","","",""
"133","","998484","SARL_v6f933l72m","msl000124","freq","","","img/orange_2bandit_b2.png","70","","70","test","1","","","circle","square","129","124","13","6","0.8629032258064516","","","","","","","","","",""
"null","","999157","SARL_v6f933l72m","msl000124","freq_resp","","","img/orange_2bandit_b.png","70","img/orange_2bandit_b.png","70","test","","","","","","","","","6","","","","","","","","","","",""
"null","","999312","SARL_v6f933l72m","msl000124","fixation","","","img/fixation.png","null","","","test","","","","","","","","","","","","","","","","","","","",""
"376","","999694","SARL_v6f933l72m","msl000124","freq","","","img/orange_2bandit_b2.png","70","","70","test","1","","","circle","square","130","125","14","6","0.864","","","","","","","","","",""
"null","","1000123","SARL_v6f933l72m","msl000124","freq_resp","","","img/orange_2bandit_b.png","70","img/orange_2bandit_b.png","70","test","","","","","","","","","6","","","","","","","","","","",""
"null","","1000279","SARL_v6f933l72m","msl000124","fixation","","","img/fixation.png","null","","","test","","","","","","","","","","","","","","","","","","","",""
"283","","1000566","SARL_v6f933l72m","msl000124","freq","","","img/orange_2bandit_b2.png","70","","70","test","1","","","circle","square","131","126","15","6","0.8650793650793651","","","","","","","","","",""
"null","","1001090","SARL_v6f933l72m","msl000124","freq_resp","","","img/orange_2bandit_b.png","70","img/orange_2bandit_b.png","70","test","","","","","","","","","6","","","","","","","","","","",""
"null","","1001246","SARL_v6f933l72m","msl000124","fixation","","","img/fixation.png","null","","","test","","","","","","","","","","","","","","","","","","","",""
"100","","1001351","SARL_v6f933l72m","msl000124","infreq","","","img/green_2bandit_b2.png","70","","68","test","0","","","circle","square","132","127","16","6","0.8582677165354331","","","","","","","","","",""
"null","","1002057","SARL_v6f933l72m","msl000124","infreq_resp","","","img/green_2bandit_b.png","70","img/green_2bandit_b.png","68","test","","","","","","","","","6","","","","","","","","","","",""
"null","","1002212","SARL_v6f933l72m","msl000124","fixation","","","img/fixation.png","null","","","test","","","","","","","","","","","","","","","","","","","",""
"402","","1002620","SARL_v6f933l72m","msl000124","freq","","","img/orange_2bandit_b2.png","70","","70","test","1","","","circle","square","133","128","17","6","0.859375","","","","","","","","","",""
"null","","1003024","SARL_v6f933l72m","msl000124","freq_resp","","","img/orange_2bandit_b.png","70","img/orange_2bandit_b.png","70","test","","","","","","","","","6","","","","","","","","","","",""
"null","","1003179","SARL_v6f933l72m","msl000124","fixation","","","img/fixation.png","null","","","test","","","","","","","","","","","","","","","","","","","",""
"159","","1003342","SARL_v6f933l72m","msl000124","freq","","","img/orange_2bandit_b2.png","70","","70","test","1","","","circle","square","134","129","18","6","0.8604651162790697","","","","","","","","","",""
"null","","1003989","SARL_v6f933l72m","msl000124","freq_resp","","","img/orange_2bandit_b.png","70","img/orange_2bandit_b.png","70","test","","","","","","","","","6","","","","","","","","","","",""
"null","","1004144","SARL_v6f933l72m","msl000124","fixation","","","img/fixation.png","null","","","test","","","","","","","","","","","","","","","","","","","",""
"365","","1004513","SARL_v6f933l72m","msl000124","freq","","","img/orange_2bandit_b2.png","70","","70","test","1","","","circle","square","135","130","19","6","0.8615384615384616","","","","","","","","","",""
"null","","1004954","SARL_v6f933l72m","msl000124","freq_resp","","","img/orange_2bandit_b.png","70","img/orange_2bandit_b.png","70","test","","","","","","","","","6","","","","","","","","","","",""
"null","","1005110","SARL_v6f933l72m","msl000124","fixation","","","img/fixation.png","null","","","test","","","","","","","","","","","","","","","","","","","",""
"331","","1005445","SARL_v6f933l72m","msl000124","freq","","","img/orange_2bandit_b2.png","70","","70","test","1","","","circle","square","136","131","20","6","0.8625954198473282","","","","","","","","","",""
"null","","1005919","SARL_v6f933l72m","msl000124","freq_resp","","","img/orange_2bandit_b.png","70","img/orange_2bandit_b.png","70","test","","","","","","","","","6","","","","","","","","","","",""
"null","","1006074","SARL_v6f933l72m","msl000124","fixation","","","img/fixation.png","null","","","test","","","","","","","","","","","","","","","","","","","",""
"301","","1006379","SARL_v6f933l72m","msl000124","freq","","","img/orange_2bandit_b2.png","70","","70","test","1","","","circle","square","137","132","21","6","0.8636363636363636","","","","","","","","","",""
"null","","1006885","SARL_v6f933l72m","msl000124","freq_resp","","","img/orange_2bandit_b.png","70","img/orange_2bandit_b.png","70","test","","","","","","","","","6","","","","","","","","","","",""
"null","","1007040","SARL_v6f933l72m","msl000124","fixation","","","img/fixation.png","null","","","test","","","","","","","","","","","","","","","","","","","",""
"null","","1007847","SARL_v6f933l72m","msl000124","infreq","","","img/green_2bandit_b2.png","null","","68","test","0","","","circle","square","138","133","22","6","0.8571428571428571","","","","","","","","","",""
"null","","1008002","SARL_v6f933l72m","msl000124","fixation","","","img/fixation.png","null","","","test","","","","","","","","","","","","","","","","","","","",""
"2","","1008009","SARL_v6f933l72m","msl000124","freq","","","img/orange_2bandit_b2.png","68","","70","test","0","","","circle","square","139","134","23","6","0.8507462686567164","","","","","","","","","",""
"null","","1008812","SARL_v6f933l72m","msl000124","freq_resp","","","img/orange_2bandit_b.png","68","img/orange_2bandit_b.png","70","test","","","","","","","","","6","","","","","","","","","","",""
"null","","1008969","SARL_v6f933l72m","msl000124","fixation","","","img/fixation.png","null","","","test","","","","","","","","","","","","","","","","","","","",""
"523","","1009496","SARL_v6f933l72m","msl000124","rl","","","img/black_2bandit_b2.png","75","","0","test","","","0","circle","square","140","","0","6","","75","0.2","0.8","0.828402677635848","0.2","0.8","0.8","square","6","0"
"null","","1010252","SARL_v6f933l72m","msl000124","feedback","","","img/boo_R_b.png","null","","na","test","","","","","","","","","6","","75","0.2","0.8","","","","0.8","","6",""
"544","","1010801","SARL_v6f933l72m","msl000124","freq","","","img/orange_2bandit_b2.png","70","","70","test","1","","","circle","square","141","135","1","7","0.8518518518518519","","","","","","","","","",""
"null","","1011063","SARL_v6f933l72m","msl000124","freq_resp","","","img/orange_2bandit_b.png","70","img/orange_2bandit_b.png","70","test","","","","","","","","","7","","","","","","","","","","",""
"null","","1011218","SARL_v6f933l72m","msl000124","fixation","","","img/fixation.png","null","","","test","","","","","","","","","","","","","","","","","","","",""
"null","","1012024","SARL_v6f933l72m","msl000124","infreq","","","img/green_2bandit_b2.png","null","","68","test","0","","","circle","square","142","136","2","7","0.8455882352941176","","","","","","","","","",""
"null","","1012180","SARL_v6f933l72m","msl000124","fixation","","","img/fixation.png","null","","","test","","","","","","","","","","","","","","","","","","","",""
"82","","1012266","SARL_v6f933l72m","msl000124","freq","","","img/orange_2bandit_b2.png","70","","70","test","1","","","circle","square","143","137","3","7","0.8467153284671532","","","","","","","","","",""
"null","","1012990","SARL_v6f933l72m","msl000124","freq_resp","","","img/orange_2bandit_b.png","70","img/orange_2bandit_b.png","70","test","","","","","","","","","7","","","","","","","","","","",""
"null","","1013146","SARL_v6f933l72m","msl000124","fixation","","","img/fixation.png","null","","","test","","","","","","","","","","","","","","","","","","","",""
"616","","1013767","SARL_v6f933l72m","msl000124","freq","","","img/orange_2bandit_b2.png","70","","70","test","1","","","circle","square","144","138","4","7","0.8478260869565217","","","","","","","","","",""
"null","","1013957","SARL_v6f933l72m","msl000124","freq_resp","","","img/orange_2bandit_b.png","70","img/orange_2bandit_b.png","70","test","","","","","","","","","7","","","","","","","","","","",""
"null","","1014113","SARL_v6f933l72m","msl000124","fixation","","","img/fixation.png","null","","","test","","","","","","","","","","","","","","","","","","","",""
"362","","1014479","SARL_v6f933l72m","msl000124","freq","","","img/orange_2bandit_b2.png","70","","70","test","1","","","circle","square","145","139","5","7","0.8489208633093526","","","","","","","","","",""
"null","","1014922","SARL_v6f933l72m","msl000124","freq_resp","","","img/orange_2bandit_b.png","70","img/orange_2bandit_b.png","70","test","","","","","","","","","7","","","","","","","","","","",""
"null","","1015078","SARL_v6f933l72m","msl000124","fixation","","","img/fixation.png","null","","","test","","","","","","","","","","","","","","","","","","","",""
"470","","1015553","SARL_v6f933l72m","msl000124","freq","","","img/orange_2bandit_b2.png","70","","70","test","1","","","circle","square","146","140","6","7","0.85","","","","","","","","","",""
"null","","1015889","SARL_v6f933l72m","msl000124","freq_resp","","","img/orange_2bandit_b.png","70","img/orange_2bandit_b.png","70","test","","","","","","","","","7","","","","","","","","","","",""
"null","","1016045","SARL_v6f933l72m","msl000124","fixation","","","img/fixation.png","null","","","test","","","","","","","","","","","","","","","","","","","",""
"327","","1016376","SARL_v6f933l72m","msl000124","freq","","","img/orange_2bandit_b2.png","70","","70","test","1","","","circle","square","147","141","7","7","0.851063829787234","","","","","","","","","",""
"null","","1016854","SARL_v6f933l72m","msl000124","freq_resp","","","img/orange_2bandit_b.png","70","img/orange_2bandit_b.png","70","test","","","","","","","","","7","","","","","","","","","","",""
"null","","1017010","SARL_v6f933l72m","msl000124","fixation","","","img/fixation.png","null","","","test","","","","","","","","","","","","","","","","","","","",""
"285","","1017300","SARL_v6f933l72m","msl000124","freq","","","img/orange_2bandit_b2.png","70","","70","test","1","","","circle","square","148","142","8","7","0.852112676056338","","","","","","","","","",""
"null","","1017821","SARL_v6f933l72m","msl000124","freq_resp","","","img/orange_2bandit_b.png","70","img/orange_2bandit_b.png","70","test","","","","","","","","","7","","","","","","","","","","",""
"null","","1017977","SARL_v6f933l72m","msl000124","fixation","","","img/fixation.png","null","","","test","","","","","","","","","","","","","","","","","","","",""
"363","","1018344","SARL_v6f933l72m","msl000124","freq","","","img/orange_2bandit_b2.png","70","","70","test","1","","","circle","square","149","143","9","7","0.8531468531468531","","","","","","","","","",""
"null","","1018787","SARL_v6f933l72m","msl000124","freq_resp","","","img/orange_2bandit_b.png","70","img/orange_2bandit_b.png","70","test","","","","","","","","","7","","","","","","","","","","",""
"null","","1018943","SARL_v6f933l72m","msl000124","fixation","","","img/fixation.png","null","","","test","","","","","","","","","","","","","","","","","","","",""
"307","","1019254","SARL_v6f933l72m","msl000124","freq","","","img/orange_2bandit_b2.png","70","","70","test","1","","","circle","square","150","144","10","7","0.8541666666666666","","","","","","","","","",""
"null","","1019753","SARL_v6f933l72m","msl000124","freq_resp","","","img/orange_2bandit_b.png","70","img/orange_2bandit_b.png","70","test","","","","","","","","","7","","","","","","","","","","",""
"null","","1019910","SARL_v6f933l72m","msl000124","fixation","","","img/fixation.png","null","","","test","","","","","","","","","","","","","","","","","","","",""
"436","","1020352","SARL_v6f933l72m","msl000124","freq","","","img/orange_2bandit_b2.png","70","","70","test","1","","","circle","square","151","145","11","7","0.8551724137931035","","","","","","","","","",""
"null","","1020721","SARL_v6f933l72m","msl000124","freq_resp","","","img/orange_2bandit_b.png","70","img/orange_2bandit_b.png","70","test","","","","","","","","","7","","","","","","","","","","",""
"null","","1020877","SARL_v6f933l72m","msl000124","fixation","","","img/fixation.png","null","","","test","","","","","","","","","","","","","","","","","","","",""
"423","","1021306","SARL_v6f933l72m","msl000124","infreq","","","img/green_2bandit_b2.png","68","","68","test","1","","","circle","square","152","146","12","7","0.8561643835616438","","","","","","","","","",""
