"rt","responses","time_elapsed","subject","demoID","trialType","rlType","attType","stimulus","key_press","stim","corrresp","phase","corr","pracCounter","reward","bandOne","bandTwo","trialNum","attentionNum","attentionRunNum","blockNum","performance","bandChosen","circleVal","squareVal","coin","bandOneVal","bandTwoVal","pReward","shapeChosen","rlNum","badFlag"
"8208440","{""Q0"":""msl000123""}","8208468","SARL_v6o7dfb9xv","msl000123","","","","","","","","","","","","","","","","","","","","","","","","","","","",""
"35486","","8243960","SARL_v6o7dfb9xv","msl000123","","","","","","","","","","","","","","","","","","","","","","","","","","","",""
"","","8246532","SARL_v6o7dfb9xv","msl000123","fullscreen","fullscreen","fullscreen","","","","","","","","","","","","","","","","","","","","","","","","",""
"104733","","8351270","SARL_v6o7dfb9xv","msl000123","","","","","","","","","","","","","","","","","","","","","","","","","","","",""
"null","","8352075","SARL_v6o7dfb9xv","msl000123","freqPrac","","","img/orange_2bandit_a2.png","null","img/orange_2bandit_a2.png","70","prac","0","1","","","","","","","","","","","","","","","","","",""
"null","","8353082","SARL_v6o7dfb9xv","msl000123","feedback","","","img/tooSlow.png","null","","na","prac","","","","","","","","","","","","","","","","","","","",""
"null","","8353237","SARL_v6o7dfb9xv","msl000123","fixation","","","img/fixation.png","null","","","prac","","","","","","","","","","","","","","","","","","","",""
"656","","8353898","SARL_v6o7dfb9xv","msl000123","infreqPrac","","","img/green_2bandit_a2.png","68","img/green_2bandit_a2.png","68","prac","1","1","","","","","","","","","","","","","","","","","",""
"656","","8354047","SARL_v6o7dfb9xv","msl000123","infreqPrac_resp","","","img/green_2bandit_a.png","68","img/green_2bandit_a.png","68","prac","","","","","","","","","","","","","","","","","","","",""
"null","","8354204","SARL_v6o7dfb9xv","msl000123","fixation","","","img/fixation.png","null","","","prac","","","","","","","","","","","","","","","","","","","",""
"593","","8354801","SARL_v6o7dfb9xv","msl000123","freqPrac","","","img/orange_2bandit_a2.png","70","img/orange_2bandit_a2.png","70","prac","1","1","","","","","","","","","","","","","","","","","",""
"593","","8355014","SARL_v6o7dfb9xv","msl000123","freqPrac_resp","","","img/orange_2bandit_a.png","70","img/orange_2bandit_a.png","70","prac","","","","","","","","","","","","","","","","","","","",""
"null","","8355170","SARL_v6o7dfb9xv","msl000123","fixation","","","img/fixation.png","null","","","prac","","","","","","","","","","","","","","","","","","","",""
"554","","8355730","SARL_v6o7dfb9xv","msl000123","infreqPrac","","","img/green_2bandit_a2.png","68","img/green_2bandit_a2.png","68","prac","1","1","","","","","","","","","","","","","","","","","",""
"554","","8355982","SARL_v6o7dfb9xv","msl000123","infreqPrac_resp","","","img/green_2bandit_a.png","68","img/green_2bandit_a.png","68","prac","","","","","","","","","","","","","","","","","","","",""
"null","","8356137","SARL_v6o7dfb9xv","msl000123","fixation","","","img/fixation.png","null","","","prac","","","","","","","","","","","","","","","","","","","",""
"435","","8356577","SARL_v6o7dfb9xv","msl000123","infreqPrac","","","img/green_2bandit_a2.png","68","img/green_2bandit_a2.png","68","prac","1","1","","","","","","","","","","","","","","","","","",""
"435","","8356948","SARL_v6o7dfb9xv","msl000123","infreqPrac_resp","","","img/green_2bandit_a.png","68","img/green_2bandit_a.png","68","prac","","","","","","","","","","","","","","","","","","","",""
"null","","8357103","SARL_v6o7dfb9xv","msl000123","fixation","","","img/fixation.png","null","","","prac","","","","","","","","","","","","","","","","","","","",""
"369","","8357477","SARL_v6o7dfb9xv","msl000123","infreqPrac","","","img/green_2bandit_a2.png","68","img/green_2bandit_a2.png","68","prac","1","1","","","","","","","","","","","","","","","","","",""
"369","","8357914","SARL_v6o7dfb9xv","msl000123","infreqPrac_resp","","","img/green_2bandit_a.png","68","img/green_2bandit_a.png","68","prac","","","","","","","","","","","","","","","","","","","",""
"null","","8358069","SARL_v6o7dfb9xv","msl000123","fixation","","","img/fixation.png","null","","","prac","","","","","","","","","","","","","","","","","","","",""
"501","","8358575","SARL_v6o7dfb9xv","msl000123","freqPrac","","","img/orange_2bandit_a2.png","70","img/orange_2bandit_a2.png","70","prac","1","1","","","","","","","","","","","","","","","","","",""
"501","","8358879","SARL_v6o7dfb9xv","msl000123","freqPrac_resp","","","img/orange_2bandit_a.png","70","img/orange_2bandit_a.png","70","prac","","","","","","","","","","","","","","","","","","","",""
"null","","8359034","SARL_v6o7dfb9xv","msl000123","fixation","","","img/fixation.png","null","","","prac","","","","","","","","","","","","","","","","","","","",""
"null","","8359839","SARL_v6o7dfb9xv","msl000123","infreqPrac","","","img/green_2bandit_a2.png","null","img/green_2bandit_a2.png","68","prac","0","2","","","","","","","","","","","","","","","","","",""
"null","","8360846","SARL_v6o7dfb9xv","msl000123","feedback","","","img/tooSlow.png","null","","na","prac","","","","","","","","","","","","","","","","","","","",""
"null","","8361001","SARL_v6o7dfb9xv","msl000123","fixation","","","img/fixation.png","null","","","prac","","","","","","","","","","","","","","","","","","","",""
"586","","8361593","SARL_v6o7dfb9xv","msl000123","freqPrac","","","img/orange_2bandit_a2.png","70","img/orange_2bandit_a2.png","70","prac","1","2","","","","","","","","","","","","","","","","","",""
"586","","8361812","SARL_v6o7dfb9xv","msl000123","freqPrac_resp","","","img/orange_2bandit_a.png","70","img/orange_2bandit_a.png","70","prac","","","","","","","","","","","","","","","","","","","",""
"null","","8361967","SARL_v6o7dfb9xv","msl000123","fixation","","","img/fixation.png","null","","","prac","","","","","","","","","","","","","","","","","","","",""
"365","","8362336","SARL_v6o7dfb9xv","msl000123","freqPrac","","","img/orange_2bandit_a2.png","70","img/orange_2bandit_a2.png","70","prac","1","2","","","","","","","","","","","","","","","","","",""
"365","","8362777","SARL_v6o7dfb9xv","msl000123","freqPrac_resp","","","img/orange_2bandit_a.png","70","img/orange_2bandit_a.png","70","prac","","","","","","","","","","","","","","","","","","","",""
"null","","8362933","SARL_v6o7dfb9xv","msl000123","fixation","","","img/fixation.png","null","","","prac","","","","","","","","","","","","","","","","","","","",""
"52985","","8415922","SARL_v6o7dfb9xv","msl000123","","","","","","","","prac","","","","","","","","","","","","","","","","","","","",""
"null","","8417428","SARL_v6o7dfb9xv","msl000123","rlPractice","","","img/black_2bandit_a2.png","null","img/black_2bandit_a2.png","","prac","","","75","","","","","","","","","","","","","","","","",""
"null","","8418184","SARL_v6o7dfb9xv","msl000123","feedback","","","img/tooSlow.png","null","","na","prac","","","","","","","","","","","","","","","","","","","",""
"null","","8418340","SARL_v6o7dfb9xv","msl000123","fixation","","","img/fixation.png","null","","","prac","","","","","","","","","","","","","","","","","","","",""
"392","","8418736","SARL_v6o7dfb9xv","msl000123","rlPractice","","","img/black_2bandit_a2.png","74","img/black_2bandit_a2.png","","prac","","","75","","","","","","","","","","","","","","","","",""
"null","","8419491","SARL_v6o7dfb9xv","msl000123","feedback","","","img/boo_L_a.png","null","","na","prac","","","","","","","","","","","","","","","","","","","",""
"null","","8419647","SARL_v6o7dfb9xv","msl000123","fixation","","","img/fixation.png","null","","","prac","","","","","","","","","","","","","","","","","","","",""
"882","","8420533","SARL_v6o7dfb9xv","msl000123","rlPractice","","","img/black_2bandit_a2.png","75","img/black_2bandit_a2.png","","prac","","","75","","","","","","","","","","","","","","","","",""
"null","","8421288","SARL_v6o7dfb9xv","msl000123","feedback","","","img/yay_R_a.png","null","","na","prac","","","","","","","","","","","","","","","","","","","",""
"null","","8421444","SARL_v6o7dfb9xv","msl000123","fixation","","","img/fixation.png","null","","","prac","","","","","","","","","","","","","","","","","","","",""
"450","","8421899","SARL_v6o7dfb9xv","msl000123","rlPractice","","","img/black_2bandit_a2.png","75","img/black_2bandit_a2.png","","prac","","","75","","","","","","","","","","","","","","","","",""
"null","","8422653","SARL_v6o7dfb9xv","msl000123","feedback","","","img/yay_R_a.png","null","","na","prac","","","","","","","","","","","","","","","","","","","",""
"null","","8422809","SARL_v6o7dfb9xv","msl000123","fixation","","","img/fixation.png","null","","","prac","","","","","","","","","","","","","","","","","","","",""
"395","","8423210","SARL_v6o7dfb9xv","msl000123","rlPractice","","","img/black_2bandit_a2.png","75","img/black_2bandit_a2.png","","prac","","","75","","","","","","","","","","","","","","","","",""
"null","","8423965","SARL_v6o7dfb9xv","msl000123","feedback","","","img/yay_R_a.png","null","","na","prac","","","","","","","","","","","","","","","","","","","",""
"null","","8424120","SARL_v6o7dfb9xv","msl000123","fixation","","","img/fixation.png","null","","","prac","","","","","","","","","","","","","","","","","","","",""
"382","","8424506","SARL_v6o7dfb9xv","msl000123","rlPractice","","","img/black_2bandit_a2.png","75","img/black_2bandit_a2.png","","prac","","","75","","","","","","","","","","","","","","","","",""
"null","","8425262","SARL_v6o7dfb9xv","msl000123","feedback","","","img/yay_R_a.png","null","","na","prac","","","","","","","","","","","","","","","","","","","",""
"null","","8425418","SARL_v6o7dfb9xv","msl000123","fixation","","","img/fixation.png","null","","","prac","","","","","","","","","","","","","","","","","","","",""
"359","","8425783","SARL_v6o7dfb9xv","msl000123","rlPractice","","","img/black_2bandit_a2.png","75","img/black_2bandit_a2.png","","prac","","","75","","","","","","","","","","","","","","","","",""
"null","","8426538","SARL_v6o7dfb9xv","msl000123","feedback","","","img/yay_R_a.png","null","","na","prac","","","","","","","","","","","","","","","","","","","",""
"null","","8426693","SARL_v6o7dfb9xv","msl000123","fixation","","","img/fixation.png","null","","","prac","","","","","","","","","","","","","","","","","","","",""
"28908","","8455606","SARL_v6o7dfb9xv","msl000123","","","","","","","","prac","","","","","","","","","","","","","","","","","","","",""
"null","","8456411","SARL_v6o7dfb9xv","msl000123","mixAttFreqPrac","","","img/orange_2bandit_a2.png","null","img/orange_2bandit_a2.png","70","prac","","","","","","","","","","","","","","","","","","","",""
"null","","8456568","SARL_v6o7dfb9xv","msl000123","fixation","","","img/fixation.png","null","","","prac","","","","","","","","","","","","","","","","","","","",""
"197","","8456770","SARL_v6o7dfb9xv","msl000123","mixAttInfreqPrac","","","img/green_2bandit_a2.png","70","img/green_2bandit_a2.png","68","prac","","","","","","","","","","","","","","","","","","","",""
"197","","8457379","SARL_v6o7dfb9xv","msl000123","infreqPrac_resp","","","img/green_2bandit_a.png","70","img/orange_2bandit_a.png","68","prac","","","","","","","","","","","","","","","","","","","",""
"64","","8457535","SARL_v6o7dfb9xv","msl000123","fixation","","","img/fixation.png","68","","","prac","","","","","","","","","","","","","","","","","","","",""
"525","","8458064","SARL_v6o7dfb9xv","msl000123","mixAttInfreqPrac","","","img/green_2bandit_a2.png","68","img/green_2bandit_a2.png","68","prac","","","","","","","","","","","","","","","","","","","",""
"525","","8458344","SARL_v6o7dfb9xv","msl000123","infreqPrac_resp","","","img/green_2bandit_a.png","68","img/orange_2bandit_a.png","68","prac","","","","","","","","","","","","","","","","","","","",""
"null","","8458500","SARL_v6o7dfb9xv","msl000123","fixation","","","img/fixation.png","null","","","prac","","","","","","","","","","","","","","","","","","","",""
"390","","8458896","SARL_v6o7dfb9xv","msl000123","mixAttInfreqPrac","","","img/green_2bandit_a2.png","68","img/green_2bandit_a2.png","68","prac","","","","","","","","","","","","","","","","","","","",""
"390","","8459311","SARL_v6o7dfb9xv","msl000123","infreqPrac_resp","","","img/green_2bandit_a.png","68","img/orange_2bandit_a.png","68","prac","","","","","","","","","","","","","","","","","","","",""
"null","","8459467","SARL_v6o7dfb9xv","msl000123","fixation","","","img/fixation.png","null","","","prac","","","","","","","","","","","","","","","","","","","",""
"390","","8459861","SARL_v6o7dfb9xv","msl000123","mixAttFreqPrac","","","img/orange_2bandit_a2.png","70","img/orange_2bandit_a2.png","70","prac","","","","","","","","","","","","","","","","","","","",""
"390","","8460278","SARL_v6o7dfb9xv","msl000123","freqPrac_resp","","","img/orange_2bandit_a.png","70","img/orange_2bandit_a.png","70","prac","","","","","","","","","","","","","","","","","","","",""
"null","","8460434","SARL_v6o7dfb9xv","msl000123","fixation","","","img/fixation.png","null","","","prac","","","","","","","","","","","","","","","","","","","",""
"868","","8461307","SARL_v6o7dfb9xv","msl000123","mixRLPractice","","","img/black_2bandit_a2.png","74","img/black_2bandit_a2.png","","prac","","","","","","","","","","","","","","","","","","","",""
"null","","8462063","SARL_v6o7dfb9xv","msl000123","feedback","","","img/yay_L_a.png","null","","na","prac","","","","","","","","","","","","","","","","","","","",""
"null","","8462869","SARL_v6o7dfb9xv","msl000123","mixAttFreqPrac","","","img/orange_2bandit_a2.png","null","img/orange_2bandit_a2.png","70","prac","","","","","","","","","","","","","","","","","","","",""
"null","","8463024","SARL_v6o7dfb9xv","msl000123","fixation","","","img/fixation.png","null","","","prac","","","","","","","","","","","","","","","","","","","",""
"491","","8463519","SARL_v6o7dfb9xv","msl000123","mixAttInfreqPrac","","","img/green_2bandit_a2.png","68","img/green_2bandit_a2.png","68","prac","","","","","","","","","","","","","","","","","","","",""
"491","","8463835","SARL_v6o7dfb9xv","msl000123","infreqPrac_resp","","","img/green_2bandit_a.png","68","img/orange_2bandit_a.png","68","prac","","","","","","","","","","","","","","","","","","","",""
"null","","8463990","SARL_v6o7dfb9xv","msl000123","fixation","","","img/fixation.png","null","","","prac","","","","","","","","","","","","","","","","","","","",""
"522","","8464518","SARL_v6o7dfb9xv","msl000123","mixAttFreqPrac","","","img/orange_2bandit_a2.png","70","img/orange_2bandit_a2.png","70","prac","","","","","","","","","","","","","","","","","","","",""
"522","","8464800","SARL_v6o7dfb9xv","msl000123","freqPrac_resp","","","img/orange_2bandit_a.png","70","img/orange_2bandit_a.png","70","prac","","","","","","","","","","","","","","","","","","","",""
"null","","8464955","SARL_v6o7dfb9xv","msl000123","fixation","","","img/fixation.png","null","","","prac","","","","","","","","","","","","","","","","","","","",""
"415","","8465375","SARL_v6o7dfb9xv","msl000123","mixAttFreqPrac","","","img/orange_2bandit_a2.png","70","img/orange_2bandit_a2.png","70","prac","","","","","","","","","","","","","","","","","","","",""
"415","","8465765","SARL_v6o7dfb9xv","msl000123","freqPrac_resp","","","img/orange_2bandit_a.png","70","img/orange_2bandit_a.png","70","prac","","","","","","","","","","","","","","","","","","","",""
"null","","8465922","SARL_v6o7dfb9xv","msl000123","fixation","","","img/fixation.png","null","","","prac","","","","","","","","","","","","","","","","","","","",""
"447","","8466374","SARL_v6o7dfb9xv","msl000123","mixAttInfreqPrac","","","img/green_2bandit_a2.png","68","img/green_2bandit_a2.png","68","prac","","","","","","","","","","","","","","","","","","","",""
"447","","8466733","SARL_v6o7dfb9xv","msl000123","infreqPrac_resp","","","img/green_2bandit_a.png","68","img/orange_2bandit_a.png","68","prac","","","","","","","","","","","","","","","","","","","",""
"null","","8466888","SARL_v6o7dfb9xv","msl000123","fixation","","","img/fixation.png","null","","","prac","","","","","","","","","","","","","","","","","","","",""
"595","","8467487","SARL_v6o7dfb9xv","msl000123","mixRLPractice","","","img/black_2bandit_a2.png","74","img/black_2bandit_a2.png","","prac","","","","","","","","","","","","","","","","","","","",""
"null","","8468244","SARL_v6o7dfb9xv","msl000123","feedback","","","img/yay_L_a.png","null","","na","prac","","","","","","","","","","","","","","","","","","","",""
"22667","","8490915","SARL_v6o7dfb9xv","msl000123","","","","","","","","prac","","","","","","","","","","","","","","","","","","","",""
"409","","8491328","SARL_v6o7dfb9xv","msl000123","freq","","","img/orange_2bandit_a2.png","70","","70","test","1","","","square","circle","1","1","1","1","1","","","","","","","","","",""
"null","","8491725","SARL_v6o7dfb9xv","msl000123","freq_resp","","","img/orange_2bandit_a.png","70","img/orange_2bandit_a.png","70","test","","","","","","","","","1","","","","","","","","","","",""
"null","","8491881","SARL_v6o7dfb9xv","msl000123","fixation","","","img/fixation.png","null","","","test","","","","","","","","","","","","","","","","","","","",""
"422","","8492307","SARL_v6o7dfb9xv","msl000123","freq","","","img/orange_2bandit_a2.png","70","","70","test","1","","","square","circle","2","2","2","1","1","","","","","","","","","",""
"null","","8492691","SARL_v6o7dfb9xv","msl000123","freq_resp","","","img/orange_2bandit_a.png","70","img/orange_2bandit_a.png","70","test","","","","","","","","","1","","","","","","","","","","",""
"null","","8492847","SARL_v6o7dfb9xv","msl000123","fixation","","","img/fixation.png","null","","","test","","","","","","","","","","","","","","","","","","","",""
"8","","8492859","SARL_v6o7dfb9xv","msl000123","freq","","","img/orange_2bandit_a2.png","70","","70","test","1","","","square","circle","3","3","3","1","1","","","","","","","","","",""
"null","","8493657","SARL_v6o7dfb9xv","msl000123","freq_resp","","","img/orange_2bandit_a.png","70","img/orange_2bandit_a.png","70","test","","","","","","","","","1","","","","","","","","","","",""
"null","","8493813","SARL_v6o7dfb9xv","msl000123","fixation","","","img/fixation.png","null","","","test","","","","","","","","","","","","","","","","","","","",""
"516","","8494335","SARL_v6o7dfb9xv","msl000123","infreq","","","img/green_2bandit_a2.png","68","","68","test","1","","","square","circle","4","4","4","1","1","","","","","","","","","",""
"null","","8494623","SARL_v6o7dfb9xv","msl000123","infreq_resp","","","img/green_2bandit_a.png","68","img/green_2bandit_a.png","68","test","","","","","","","","","1","","","","","","","","","","",""
"null","","8494779","SARL_v6o7dfb9xv","msl000123","fixation","","","img/fixation.png","null","","","test","","","","","","","","","","","","","","","","","","","",""
"423","","8495206","SARL_v6o7dfb9xv","msl000123","freq","","","img/orange_2bandit_a2.png","70","","70","test","1","","","square","circle","5","5","5","1","1","","","","","","","","","",""
"null","","8495590","SARL_v6o7dfb9xv","msl000123","freq_resp","","","img/orange_2bandit_a.png","70","img/orange_2bandit_a.png","70","test","","","","","","","","","1","","","","","","","","","","",""
"null","","8495745","SARL_v6o7dfb9xv","msl000123","fixation","","","img/fixation.png","null","","","test","","","","","","","","","","","","","","","","","","","",""
"377","","8496128","SARL_v6o7dfb9xv","msl000123","freq","","","img/orange_2bandit_a2.png","70","","70","test","1","","","square","circle","6","6","6","1","1","","","","","","","","","",""
"null","","8496557","SARL_v6o7dfb9xv","msl000123","freq_resp","","","img/orange_2bandit_a.png","70","img/orange_2bandit_a.png","70","test","","","","","","","","","1","","","","","","","","","","",""
"null","","8496712","SARL_v6o7dfb9xv","msl000123","fixation","","","img/fixation.png","null","","","test","","","","","","","","","","","","","","","","","","","",""
"376","","8497094","SARL_v6o7dfb9xv","msl000123","freq","","","img/orange_2bandit_a2.png","70","","70","test","1","","","square","circle","7","7","7","1","1","","","","","","","","","",""
"null","","8497523","SARL_v6o7dfb9xv","msl000123","freq_resp","","","img/orange_2bandit_a.png","70","img/orange_2bandit_a.png","70","test","","","","","","","","","1","","","","","","","","","","",""
"null","","8497680","SARL_v6o7dfb9xv","msl000123","fixation","","","img/fixation.png","null","","","test","","","","","","","","","","","","","","","","","","","",""
"317","","8498002","SARL_v6o7dfb9xv","msl000123","freq","","","img/orange_2bandit_a2.png","70","","70","test","1","","","square","circle","8","8","8","1","1","","","","","","","","","",""
"null","","8498492","SARL_v6o7dfb9xv","msl000123","freq_resp","","","img/orange_2bandit_a.png","70","img/orange_2bandit_a.png","70","test","","","","","","","","","1","","","","","","","","","","",""
"null","","8498647","SARL_v6o7dfb9xv","msl000123","fixation","","","img/fixation.png","null","","","test","","","","","","","","","","","","","","","","","","","",""
"356","","8499007","SARL_v6o7dfb9xv","msl000123","freq","","","img/orange_2bandit_a2.png","70","","70","test","1","","","square","circle","9","9","9","1","1","","","","","","","","","",""
"null","","8499457","SARL_v6o7dfb9xv","msl000123","freq_resp","","","img/orange_2bandit_a.png","70","img/orange_2bandit_a.png","70","test","","","","","","","","","1","","","","","","","","","","",""
"null","","8499613","SARL_v6o7dfb9xv","msl000123","fixation","","","img/fixation.png","null","","","test","","","","","","","","","","","","","","","","","","","",""
"345","","8499964","SARL_v6o7dfb9xv","msl000123","freq","","","img/orange_2bandit_a2.png","70","","70","test","1","","","square","circle","10","10","10","1","1","","","","","","","","","",""
"null","","8500424","SARL_v6o7dfb9xv","msl000123","freq_resp","","","img/orange_2bandit_a.png","70","img/orange_2bandit_a.png","70","test","","","","","","","","","1","","","","","","","","","","",""
"null","","8500579","SARL_v6o7dfb9xv","msl000123","fixation","","","img/fixation.png","null","","","test","","","","","","","","","","","","","","","","","","","",""
"330","","8500915","SARL_v6o7dfb9xv","msl000123","freq","","","img/orange_2bandit_a2.png","70","","70","test","1","","","square","circle","11","11","11","1","1","","","","","","","","","",""
"null","","8501391","SARL_v6o7dfb9xv","msl000123","freq_resp","","","img/orange_2bandit_a.png","70","img/orange_2bandit_a.png","70","test","","","","","","","","","1","","","","","","","","","","",""
"null","","8501545","SARL_v6o7dfb9xv","msl000123","fixation","","","img/fixation.png","null","","","test","","","","","","","","","","","","","","","","","","","",""
"299","","8501851","SARL_v6o7dfb9xv","msl000123","freq","","","img/orange_2bandit_a2.png","70","","70","test","1","","","square","circle","12","12","12","1","1","","","","","","","","","",""
"null","","8502357","SARL_v6o7dfb9xv","msl000123","freq_resp","","","img/orange_2bandit_a.png","70","img/orange_2bandit_a.png","70","test","","","","","","","","","1","","","","","","","","","","",""
"null","","8502513","SARL_v6o7dfb9xv","msl000123","fixation","","","img/fixation.png","null","","","test","","","","","","","","","","","","","","","","","","","",""
"342","","8502860","SARL_v6o7dfb9xv","msl000123","infreq","","","img/green_2bandit_a2.png","70","","68","test","0","","","square","circle","13","13","13","1","0.9230769230769231","","","","","","","","","",""
"null","","8503324","SARL_v6o7dfb9xv","msl000123","infreq_resp","","","img/green_2bandit_a.png","70","img/green_2bandit_a.png","68","test","","","","","","","","","1","","","","","","","","","","",""
"null","","8503481","SARL_v6o7dfb9xv","msl000123","fixation","","","img/fixation.png","null","","","test","","","","","","","","","","","","","","","","","","","",""
"366","","8503853","SARL_v6o7dfb9xv","msl000123","freq","","","img/orange_2bandit_a2.png","70","","70","test","1","","","square","circle","14","14","14","1","0.9285714285714286","","","","","","","","","",""
"null","","8504294","SARL_v6o7dfb9xv","msl000123","freq_resp","","","img/orange_2bandit_a.png","70","img/orange_2bandit_a.png","70","test","","","","","","","","","1","","","","","","","","","","",""
"null","","8504448","SARL_v6o7dfb9xv","msl000123","fixation","","","img/fixation.png","null","","","test","","","","","","","","","","","","","","","","","","","",""
"352","","8504807","SARL_v6o7dfb9xv","msl000123","freq","","","img/orange_2bandit_a2.png","70","","70","test","1","","","square","circle","15","15","15","1","0.9333333333333333","","","","","","","","","",""
"null","","8505260","SARL_v6o7dfb9xv","msl000123","freq_resp","","","img/orange_2bandit_a.png","70","img/orange_2bandit_a.png","70","test","","","","","","","","","1","","","","","","","","","","",""
"null","","8505416","SARL_v6o7dfb9xv","msl000123","fixation","","","img/fixation.png","null","","","test","","","","","","","","","","","","","","","","","","","",""
"390","","8505810","SARL_v6o7dfb9xv","msl000123","freq","","","img/orange_2bandit_a2.png","70","","70","test","1","","","square","circle","16","16","16","1","0.9375","","","","","","","","","",""
"null","","8506225","SARL_v6o7dfb9xv","msl000123","freq_resp","","","img/orange_2bandit_a.png","70","img/orange_2bandit_a.png","70","test","","","","","","","","","1","","","","","","","","","","",""
"null","","8506381","SARL_v6o7dfb9xv","msl000123","fixation","","","img/fixation.png","null","","","test","","","","","","","","","","","","","","","","","","","",""
"331","","8506716","SARL_v6o7dfb9xv","msl000123","freq","","","img/orange_2bandit_a2.png","70","","70","test","1","","","square","circle","17","17","17","1","0.9411764705882353","","","","","","","","","",""
"null","","8507191","SARL_v6o7dfb9xv","msl000123","freq_resp","","","img/orange_2bandit_a.png","70","img/orange_2bandit_a.png","70","test","","","","","","","","","1","","","","","","","","","","",""
"null","","8507347","SARL_v6o7dfb9xv","msl000123","fixation","","","img/fixation.png","null","","","test","","","","","","","","","","","","","","","","","","","",""
"339","","8507690","SARL_v6o7dfb9xv","msl000123","freq","","","img/orange_2bandit_a2.png","70","","70","test","1","","","square","circle","18","18","18","1","0.9444444444444444","","","","","","","","","",""
"null","","8508156","SARL_v6o7dfb9xv","msl000123","freq_resp","","","img/orange_2bandit_a.png","70","img/orange_2bandit_a.png","70","test","","","","","","","","","1","","","","","","","","","","",""
"null","","8508312","SARL_v6o7dfb9xv","msl000123","fixation","","","img/fixation.png","null","","","test","","","","","","","","","","","","","","","","","","","",""
"407","","8508724","SARL_v6o7dfb9xv","msl000123","infreq","","","img/green_2bandit_a2.png","68","","68","test","1","","","square","circle","19","19","19","1","0.9473684210526315","","","","","","","","","",""
"null","","8509123","SARL_v6o7dfb9xv","msl000123","infreq_resp","","","img/green_2bandit_a.png","68","img/green_2bandit_a.png","68","test","","","","","","","","","1","","","","","","","","","","",""
"null","","8509279","SARL_v6o7dfb9xv","msl000123","fixation","","","img/fixation.png","null","","","test","","","","","","","","","","","","","","","","","","","",""
"395","","8509677","SARL_v6o7dfb9xv","msl000123","freq","","","img/orange_2bandit_a2.png","70","","70","test","1","","","square","circle","20","20","20","1","0.95","","","","","","","","","",""
"null","","8510088","SARL_v6o7dfb9xv","msl000123","freq_resp","","","img/orange_2bandit_a.png","70","img/orange_2bandit_a.png","70","test","","","","","","","","","1","","","","","","","","","","",""
"null","","8510243","SARL_v6o7dfb9xv","msl000123","fixation","","","img/fixation.png","null","","","test","","","","","","","","","","","","","","","","","","","",""
"343","","8510590","SARL_v6o7dfb9xv","msl000123","freq","","","img/orange_2bandit_a2.png","70","","70","test","1","","","square","circle","21","21","21","1","0.9523809523809523","","","","","","","","","",""
"null","","8511053","SARL_v6o7dfb9xv","msl000123","freq_resp","","","img/orange_2bandit_a.png","70","img/orange_2bandit_a.png","70","test","","","","","","","","","1","","","","","","","","","","",""
"null","","8511208","SARL_v6o7dfb9xv","msl000123","fixation","","","img/fixation.png","null","","","test","","","","","","","","","","","","","","","","","","","",""
"318","","8511531","SARL_v6o7dfb9xv","msl000123","freq","","","img/orange_2bandit_a2.png","70","","70","test","1","","","square","circle","22","22","22","1","0.9545454545454546","","","","","","","","","",""
"null","","8512019","SARL_v6o7dfb9xv","msl000123","freq_resp","","","img/orange_2bandit_a.png","70","img/orange_2bandit_a.png","70","test","","","","","","","","","1","","","","","","","","","","",""
"null","","8512176","SARL_v6o7dfb9xv","msl000123","fixation","","","img/fixation.png","null","","","test","","","","","","","","","","","","","","","","","","","",""
"313","","8512493","SARL_v6o7dfb9xv","msl000123","freq","","","img/orange_2bandit_a2.png","70","","70","test","1","","","square","circle","23","23","23","1","0.9565217391304348","","","","","","","","","",""
"null","","8512986","SARL_v6o7dfb9xv","msl000123","freq_resp","","","img/orange_2bandit_a.png","70","img/orange_2bandit_a.png","70","test","","","","","","","","","1","","","","","","","","","","",""
"null","","8513142","SARL_v6o7dfb9xv","msl000123","fixation","","","img/fixation.png","null","","","test","","","","","","","","","","","","","","","","","","","",""
"336","","8513481","SARL_v6o7dfb9xv","msl000123","freq","","","img/orange_2bandit_a2.png","70","","70","test","1","","","square","circle","24","24","24","1","0.9583333333333334","","","","","","","","","",""
"null","","8513950","SARL_v6o7dfb9xv","msl000123","freq_resp","","","img/orange_2bandit_a.png","70","img/orange_2bandit_a.png","70","test","","","","","","","","","1","","","","","","","","","","",""
"null","","8514107","SARL_v6o7dfb9xv","msl000123","fixation","","","img/fixation.png","null","","","test","","","","","","","","","","","","","","","","","","","",""
"318","","8514430","SARL_v6o7dfb9xv","msl000123","freq","","","img/orange_2bandit_a2.png","70","","70","test","1","","","square","circle","25","25","25","1","0.96","","","","","","","","","",""
"null","","8514918","SARL_v6o7dfb9xv","msl000123","freq_resp","","","img/orange_2bandit_a.png","70","img/orange_2bandit_a.png","70","test","","","","","","","","","1","","","","","","","","","","",""
"null","","8515073","SARL_v6o7dfb9xv","msl000123","fixation","","","img/fixation.png","null","","","test","","","","","","","","","","","","","","","","","","","",""
"776","","8515854","SARL_v6o7dfb9xv","msl000123","rl","","","img/black_2bandit_a2.png","74","","0","test","","","1","square","circle","26","","0","1","","74","0.2","0.8","0.39194624804111455","0.8","0.2","0.8","square","1","0"
"null","","8516611","SARL_v6o7dfb9xv","msl000123","feedback","","","img/yay_L_a.png","null","","na","test","","","","","","","","","1","","74","0.2","0.8","","","","0.8","","1",""
"765","","8517381","SARL_v6o7dfb9xv","msl000123","freq","","","img/orange_2bandit_a2.png","70","","70","test","1","","","square","circle","27","26","1","2","0.9615384615384616","","","","","","","","","",""
"null","","8517421","SARL_v6o7dfb9xv","msl000123","freq_resp","","","img/orange_2bandit_a.png","70","img/orange_2bandit_a.png","70","test","","","","","","","","","2","","","","","","","","","","",""
"null","","8517577","SARL_v6o7dfb9xv","msl000123","fixation","","","img/fixation.png","null","","","test","","","","","","","","","","","","","","","","","","","",""
"514","","8518097","SARL_v6o7dfb9xv","msl000123","freq","","","img/orange_2bandit_a2.png","70","","70","test","1","","","square","circle","28","27","2","2","0.9629629629629629","","","","","","","","","",""
"null","","8518388","SARL_v6o7dfb9xv","msl000123","freq_resp","","","img/orange_2bandit_a.png","70","img/orange_2bandit_a.png","70","test","","","","","","","","","2","","","","","","","","","","",""
"null","","8518545","SARL_v6o7dfb9xv","msl000123","fixation","","","img/fixation.png","null","","","test","","","","","","","","","","","","","","","","","","","",""
"412","","8518961","SARL_v6o7dfb9xv","msl000123","freq","","","img/orange_2bandit_a2.png","70","","70","test","1","","","square","circle","29","28","3","2","0.9642857142857143","","","","","","","","","",""
"null","","8519354","SARL_v6o7dfb9xv","msl000123","freq_resp","","","img/orange_2bandit_a.png","70","img/orange_2bandit_a.png","70","test","","","","","","","","","2","","","","","","","","","","",""
"null","","8519510","SARL_v6o7dfb9xv","msl000123","fixation","","","img/fixation.png","null","","","test","","","","","","","","","","","","","","","","","","","",""
"409","","8519924","SARL_v6o7dfb9xv","msl000123","freq","","","img/orange_2bandit_a2.png","70","","70","test","1","","","square","circle","30","29","4","2","0.9655172413793104","","","","","","","","","",""
"null","","8520321","SARL_v6o7dfb9xv","msl000123","freq_resp","","","img/orange_2bandit_a.png","70","img/orange_2bandit_a.png","70","test","","","","","","","","","2","","","","","","","","","","",""
"null","","8520477","SARL_v6o7dfb9xv","msl000123","fixation","","","img/fixation.png","null","","","test","","","","","","","","","","","","","","","","","","","",""
"373","","8520853","SARL_v6o7dfb9xv","msl000123","freq","","","img/orange_2bandit_a2.png","70","","70","test","1","","","square","circle","31","30","5","2","0.9666666666666667","","","","","","","","","",""
"null","","8521287","SARL_v6o7dfb9xv","msl000123","freq_resp","","","img/orange_2bandit_a.png","70","img/orange_2bandit_a.png","70","test","","","","","","","","","2","","","","","","","","","","",""
"null","","8521442","SARL_v6o7dfb9xv","msl000123","fixation","","","img/fixation.png","null","","","test","","","","","","","","","","","","","","","","","","","",""
"409","","8521856","SARL_v6o7dfb9xv","msl000123","freq","","","img/orange_2bandit_a2.png","70","","70","test","1","","","square","circle","32","31","6","2","0.967741935483871","","","","","","","","","",""
"null","","8522253","SARL_v6o7dfb9xv","msl000123","freq_resp","","","img/orange_2bandit_a.png","70","img/orange_2bandit_a.png","70","test","","","","","","","","","2","","","","","","","","","","",""
"null","","8522409","SARL_v6o7dfb9xv","msl000123","fixation","","","img/fixation.png","null","","","test","","","","","","","","","","","","","","","","","","","",""
"541","","8522955","SARL_v6o7dfb9xv","msl000123","infreq","","","img/green_2bandit_a2.png","68","","68","test","1","","","square","circle","33","32","7","2","0.96875","","","","","","","","","",""
"null","","8523219","SARL_v6o7dfb9xv","msl000123","infreq_resp","","","img/green_2bandit_a.png","68","img/green_2bandit_a.png","68","test","","","","","","","","","2","","","","","","","","","","",""
"null","","8523375","SARL_v6o7dfb9xv","msl000123","fixation","","","img/fixation.png","null","","","test","","","","","","","","","","","","","","","","","","","",""
"497","","8523877","SARL_v6o7dfb9xv","msl000123","freq","","","img/orange_2bandit_a2.png","70","","70","test","1","","","square","circle","34","33","8","2","0.9696969696969697","","","","","","","","","",""
"null","","8524185","SARL_v6o7dfb9xv","msl000123","freq_resp","","","img/orange_2bandit_a.png","70","img/orange_2bandit_a.png","70","test","","","","","","","","","2","","","","","","","","","","",""
"null","","8524341","SARL_v6o7dfb9xv","msl000123","fixation","","","img/fixation.png","null","","","test","","","","","","","","","","","","","","","","","","","",""
"414","","8524761","SARL_v6o7dfb9xv","msl000123","freq","","","img/orange_2bandit_a2.png","70","","70","test","1","","","square","circle","35","34","9","2","0.9705882352941176","","","","","","","","","",""
"null","","8525153","SARL_v6o7dfb9xv","msl000123","freq_resp","","","img/orange_2bandit_a.png","70","img/orange_2bandit_a.png","70","test","","","","","","","","","2","","","","","","","","","","",""
"null","","8525308","SARL_v6o7dfb9xv","msl000123","fixation","","","img/fixation.png","null","","","test","","","","","","","","","","","","","","","","","","","",""
"398","","8525712","SARL_v6o7dfb9xv","msl000123","freq","","","img/orange_2bandit_a2.png","70","","70","test","1","","","square","circle","36","35","10","2","0.9714285714285714","","","","","","","","","",""
"null","","8526120","SARL_v6o7dfb9xv","msl000123","freq_resp","","","img/orange_2bandit_a.png","70","img/orange_2bandit_a.png","70","test","","","","","","","","","2","","","","","","","","","","",""
"null","","8526275","SARL_v6o7dfb9xv","msl000123","fixation","","","img/fixation.png","null","","","test","","","","","","","","","","","","","","","","","","","",""
"405","","8526685","SARL_v6o7dfb9xv","msl000123","freq","","","img/orange_2bandit_a2.png","70","","70","test","1","","","square","circle","37","36","11","2","0.9722222222222222","","","","","","","","","",""
"null","","8527086","SARL_v6o7dfb9xv","msl000123","freq_resp","","","img/orange_2bandit_a.png","70","img/orange_2bandit_a.png","70","test","","","","","","","","","2","","","","","","","","","","",""
"null","","8527241","SARL_v6o7dfb9xv","msl000123","fixation","","","img/fixation.png","null","","","test","","","","","","","","","","","","","","","","","","","",""
"349","","8527595","SARL_v6o7dfb9xv","msl000123","freq","","","img/orange_2bandit_a2.png","70","","70","test","1","","","square","circle","38","37","12","2","0.972972972972973","","","","","","","","","",""
"null","","8528051","SARL_v6o7dfb9xv","msl000123","freq_resp","","","img/orange_2bandit_a.png","70","img/orange_2bandit_a.png","70","test","","","","","","","","","2","","","","","","","","","","",""
"null","","8528207","SARL_v6o7dfb9xv","msl000123","fixation","","","img/fixation.png","null","","","test","","","","","","","","","","","","","","","","","","","",""
"549","","8528761","SARL_v6o7dfb9xv","msl000123","freq","","","img/orange_2bandit_a2.png","70","","70","test","1","","","square","circle","39","38","13","2","0.9736842105263158","","","","","","","","","",""
"null","","8529018","SARL_v6o7dfb9xv","msl000123","freq_resp","","","img/orange_2bandit_a.png","70","img/orange_2bandit_a.png","70","test","","","","","","","","","2","","","","","","","","","","",""
"null","","8529173","SARL_v6o7dfb9xv","msl000123","fixation","","","img/fixation.png","null","","","test","","","","","","","","","","","","","","","","","","","",""
"406","","8529583","SARL_v6o7dfb9xv","msl000123","freq","","","img/orange_2bandit_a2.png","70","","70","test","1","","","square","circle","40","39","14","2","0.9743589743589743","","","","","","","","","",""
"null","","8529982","SARL_v6o7dfb9xv","msl000123","freq_resp","","","img/orange_2bandit_a.png","70","img/orange_2bandit_a.png","70","test","","","","","","","","","2","","","","","","","","","","",""
"null","","8530137","SARL_v6o7dfb9xv","msl000123","fixation","","","img/fixation.png","null","","","test","","","","","","","","","","","","","","","","","","","",""
"454","","8530597","SARL_v6o7dfb9xv","msl000123","freq","","","img/orange_2bandit_a2.png","70","","70","test","1","","","square","circle","41","40","15","2","0.975","","","","","","","","","",""
"null","","8530948","SARL_v6o7dfb9xv","msl000123","freq_resp","","","img/orange_2bandit_a.png","70","img/orange_2bandit_a.png","70","test","","","","","","","","","2","","","","","","","","","","",""
"null","","8531103","SARL_v6o7dfb9xv","msl000123","fixation","","","img/fixation.png","null","","","test","","","","","","","","","","","","","","","","","","","",""
"548","","8531655","SARL_v6o7dfb9xv","msl000123","infreq","","","img/green_2bandit_a2.png","68","","68","test","1","","","square","circle","42","41","16","2","0.975609756097561","","","","","","","","","",""
"null","","8531913","SARL_v6o7dfb9xv","msl000123","infreq_resp","","","img/green_2bandit_a.png","68","img/green_2bandit_a.png","68","test","","","","","","","","","2","","","","","","","","","","",""
"null","","8532068","SARL_v6o7dfb9xv","msl000123","fixation","","","img/fixation.png","null","","","test","","","","","","","","","","","","","","","","","","","",""
"455","","8532528","SARL_v6o7dfb9xv","msl000123","freq","","","img/orange_2bandit_a2.png","70","","70","test","1","","","square","circle","43","42","17","2","0.9761904761904762","","","","","","","","","",""
"null","","8532879","SARL_v6o7dfb9xv","msl000123","freq_resp","","","img/orange_2bandit_a.png","70","img/orange_2bandit_a.png","70","test","","","","","","","","","2","","","","","","","","","","",""
"null","","8533034","SARL_v6o7dfb9xv","msl000123","fixation","","","img/fixation.png","null","","","test","","","","","","","","","","","","","","","","","","","",""
"392","","8533432","SARL_v6o7dfb9xv","msl000123","freq","","","img/orange_2bandit_a2.png","70","","70","test","1","","","square","circle","44","43","18","2","0.9767441860465116","","","","","","","","","",""
"null","","8533845","SARL_v6o7dfb9xv","msl000123","freq_resp","","","img/orange_2bandit_a.png","70","img/orange_2bandit_a.png","70","test","","","","","","","","","2","","","","","","","","","","",""
"null","","8534001","SARL_v6o7dfb9xv","msl000123","fixation","","","img/fixation.png","null","","","test","","","","","","","","","","","","","","","","","","","",""
"359","","8534365","SARL_v6o7dfb9xv","msl000123","freq","","","img/orange_2bandit_a2.png","70","","70","test","1","","","square","circle","45","44","19","2","0.9772727272727273","","","","","","","","","",""
"null","","8534812","SARL_v6o7dfb9xv","msl000123","freq_resp","","","img/orange_2bandit_a.png","70","img/orange_2bandit_a.png","70","test","","","","","","","","","2","","","","","","","","","","",""
"null","","8534968","SARL_v6o7dfb9xv","msl000123","fixation","","","img/fixation.png","null","","","test","","","","","","","","","","","","","","","","","","","",""
"331","","8535303","SARL_v6o7dfb9xv","msl000123","infreq","","","img/green_2bandit_a2.png","70","","68","test","0","","","square","circle","46","45","20","2","0.9555555555555556","","","","","","","","","",""
"null","","8535778","SARL_v6o7dfb9xv","msl000123","infreq_resp","","","img/green_2bandit_a.png","70","img/green_2bandit_a.png","68","test","","","","","","","","","2","","","","","","","","","","",""
"null","","8535934","SARL_v6o7dfb9xv","msl000123","fixation","","","img/fixation.png","null","","","test","","","","","","","","","","","","","","","","","","","",""
"516","","8536454","SARL_v6o7dfb9xv","msl000123","freq","","","img/orange_2bandit_a2.png","70","","70","test","1","","","square","circle","47","46","21","2","0.9565217391304348","","","","","","","","","",""
"null","","8536744","SARL_v6o7dfb9xv","msl000123","freq_resp","","","img/orange_2bandit_a.png","70","img/orange_2bandit_a.png","70","test","","","","","","","","","2","","","","","","","","","","",""
"null","","8536900","SARL_v6o7dfb9xv","msl000123","fixation","","","img/fixation.png","null","","","test","","","","","","","","","","","","","","","","","","","",""
"508","","8537412","SARL_v6o7dfb9xv","msl000123","infreq","","","img/green_2bandit_a2.png","68","","68","test","1","","","square","circle","48","47","22","2","0.9574468085106383","","","","","","","","","",""
"null","","8537709","SARL_v6o7dfb9xv","msl000123","infreq_resp","","","img/green_2bandit_a.png","68","img/green_2bandit_a.png","68","test","","","","","","","","","2","","","","","","","","","","",""
"null","","8537865","SARL_v6o7dfb9xv","msl000123","fixation","","","img/fixation.png","null","","","test","","","","","","","","","","","","","","","","","","","",""
"452","","8538321","SARL_v6o7dfb9xv","msl000123","freq","","","img/orange_2bandit_a2.png","70","","70","test","1","","","square","circle","49","48","23","2","0.9583333333333334","","","","","","","","","",""
"null","","8538675","SARL_v6o7dfb9xv","msl000123","freq_resp","","","img/orange_2bandit_a.png","70","img/orange_2bandit_a.png","70","test","","","","","","","","","2","","","","","","","","","","",""
"null","","8538831","SARL_v6o7dfb9xv","msl000123","fixation","","","img/fixation.png","null","","","test","","","","","","","","","","","","","","","","","","","",""
"376","","8539213","SARL_v6o7dfb9xv","msl000123","freq","","","img/orange_2bandit_a2.png","70","","70","test","1","","","square","circle","50","49","24","2","0.9591836734693877","","","","","","","","","",""
"null","","8539643","SARL_v6o7dfb9xv","msl000123","freq_resp","","","img/orange_2bandit_a.png","70","img/orange_2bandit_a.png","70","test","","","","","","","","","2","","","","","","","","","","",""
"null","","8539799","SARL_v6o7dfb9xv","msl000123","fixation","","","img/fixation.png","null","","","test","","","","","","","","","","","","","","","","","","","",""
"382","","8540186","SARL_v6o7dfb9xv","msl000123","freq","","","img/orange_2bandit_a2.png","70","","70","test","1","","","square","circle","51","50","25","2","0.96","","","","","","","","","",""
"null","","8540610","SARL_v6o7dfb9xv","msl000123","freq_resp","","","img/orange_2bandit_a.png","70","img/orange_2bandit_a.png","70","test","","","","","","","","","2","","","","","","","","","","",""
"null","","8540766","SARL_v6o7dfb9xv","msl000123","fixation","","","img/fixation.png","null","","","test","","","","","","","","","","","","","","","","","","","",""
"640","","8541410","SARL_v6o7dfb9xv","msl000123","rl","","","img/black_2bandit_a2.png","74","","0","test","","","1","square","circle","52","","0","2","","74","0.2","0.8","0.06523524822739057","0.8","0.2","0.8","square","2","0"
"null","","8542168","SARL_v6o7dfb9xv","msl000123","feedback","","","img/yay_L_a.png","null","","na","test","","","","","","","","","2","","74","0.2","0.8","","","","0.8","","2",""
"708","","8542880","SARL_v6o7dfb9xv","msl000123","freq","","","img/orange_2bandit_a2.png","70","","70","test","1","","","square","circle","53","51","1","3","0.9607843137254902","","","","","","","","","",""
"null","","8542978","SARL_v6o7dfb9xv","msl000123","freq_resp","","","img/orange_2bandit_a.png","70","img/orange_2bandit_a.png","70","test","","","","","","","","","3","","","","","","","","","","",""
"null","","8543133","SARL_v6o7dfb9xv","msl000123","fixation","","","img/fixation.png","null","","","test","","","","","","","","","","","","","","","","","","","",""
"595","","8543734","SARL_v6o7dfb9xv","msl000123","infreq","","","img/green_2bandit_a2.png","68","","68","test","1","","","square","circle","54","52","2","3","0.9615384615384616","","","","","","","","","",""
"null","","8543945","SARL_v6o7dfb9xv","msl000123","infreq_resp","","","img/green_2bandit_a.png","68","img/green_2bandit_a.png","68","test","","","","","","","","","3","","","","","","","","","","",""
"null","","8544100","SARL_v6o7dfb9xv","msl000123","fixation","","","img/fixation.png","null","","","test","","","","","","","","","","","","","","","","","","","",""
"522","","8544627","SARL_v6o7dfb9xv","msl000123","freq","","","img/orange_2bandit_a2.png","70","","70","test","1","","","square","circle","55","53","3","3","0.9622641509433962","","","","","","","","","",""
"null","","8544911","SARL_v6o7dfb9xv","msl000123","freq_resp","","","img/orange_2bandit_a.png","70","img/orange_2bandit_a.png","70","test","","","","","","","","","3","","","","","","","","","","",""
"null","","8545067","SARL_v6o7dfb9xv","msl000123","fixation","","","img/fixation.png","null","","","test","","","","","","","","","","","","","","","","","","","",""
"439","","8545512","SARL_v6o7dfb9xv","msl000123","freq","","","img/orange_2bandit_a2.png","70","","70","test","1","","","square","circle","56","54","4","3","0.9629629629629629","","","","","","","","","",""
"null","","8545879","SARL_v6o7dfb9xv","msl000123","freq_resp","","","img/orange_2bandit_a.png","70","img/orange_2bandit_a.png","70","test","","","","","","","","","3","","","","","","","","","","",""
"null","","8546035","SARL_v6o7dfb9xv","msl000123","fixation","","","img/fixation.png","null","","","test","","","","","","","","","","","","","","","","","","","",""
"389","","8546428","SARL_v6o7dfb9xv","msl000123","freq","","","img/orange_2bandit_a2.png","70","","70","test","1","","","square","circle","57","55","5","3","0.9636363636363636","","","","","","","","","",""
"null","","8546845","SARL_v6o7dfb9xv","msl000123","freq_resp","","","img/orange_2bandit_a.png","70","img/orange_2bandit_a.png","70","test","","","","","","","","","3","","","","","","","","","","",""
"null","","8546999","SARL_v6o7dfb9xv","msl000123","fixation","","","img/fixation.png","null","","","test","","","","","","","","","","","","","","","","","","","",""
"376","","8547380","SARL_v6o7dfb9xv","msl000123","freq","","","img/orange_2bandit_a2.png","70","","70","test","1","","","square","circle","58","56","6","3","0.9642857142857143","","","","","","","","","",""
"null","","8547810","SARL_v6o7dfb9xv","msl000123","freq_resp","","","img/orange_2bandit_a.png","70","img/orange_2bandit_a.png","70","test","","","","","","","","","3","","","","","","","","","","",""
"null","","8547966","SARL_v6o7dfb9xv","msl000123","fixation","","","img/fixation.png","null","","","test","","","","","","","","","","","","","","","","","","","",""
"313","","8548284","SARL_v6o7dfb9xv","msl000123","freq","","","img/orange_2bandit_a2.png","70","","70","test","1","","","square","circle","59","57","7","3","0.9649122807017544","","","","","","","","","",""
"null","","8548777","SARL_v6o7dfb9xv","msl000123","freq_resp","","","img/orange_2bandit_a.png","70","img/orange_2bandit_a.png","70","test","","","","","","","","","3","","","","","","","","","","",""
"null","","8548933","SARL_v6o7dfb9xv","msl000123","fixation","","","img/fixation.png","null","","","test","","","","","","","","","","","","","","","","","","","",""
"350","","8549288","SARL_v6o7dfb9xv","msl000123","freq","","","img/orange_2bandit_a2.png","70","","70","test","1","","","square","circle","60","58","8","3","0.9655172413793104","","","","","","","","","",""
"null","","8549744","SARL_v6o7dfb9xv","msl000123","freq_resp","","","img/orange_2bandit_a.png","70","img/orange_2bandit_a.png","70","test","","","","","","","","","3","","","","","","","","","","",""
"null","","8549900","SARL_v6o7dfb9xv","msl000123","fixation","","","img/fixation.png","null","","","test","","","","","","","","","","","","","","","","","","","",""
"284","","8550189","SARL_v6o7dfb9xv","msl000123","freq","","","img/orange_2bandit_a2.png","70","","70","test","1","","","square","circle","61","59","9","3","0.9661016949152542","","","","","","","","","",""
"null","","8550711","SARL_v6o7dfb9xv","msl000123","freq_resp","","","img/orange_2bandit_a.png","70","img/orange_2bandit_a.png","70","test","","","","","","","","","3","","","","","","","","","","",""
"null","","8550867","SARL_v6o7dfb9xv","msl000123","fixation","","","img/fixation.png","null","","","test","","","","","","","","","","","","","","","","","","","",""
"322","","8551195","SARL_v6o7dfb9xv","msl000123","freq","","","img/orange_2bandit_a2.png","70","","70","test","1","","","square","circle","62","60","10","3","0.9666666666666667","","","","","","","","","",""
"null","","8551680","SARL_v6o7dfb9xv","msl000123","freq_resp","","","img/orange_2bandit_a.png","70","img/orange_2bandit_a.png","70","test","","","","","","","","","3","","","","","","","","","","",""
"null","","8551836","SARL_v6o7dfb9xv","msl000123","fixation","","","img/fixation.png","null","","","test","","","","","","","","","","","","","","","","","","","",""
"323","","8552164","SARL_v6o7dfb9xv","msl000123","freq","","","img/orange_2bandit_a2.png","70","","70","test","1","","","square","circle","63","61","11","3","0.9672131147540983","","","","","","","","","",""
"null","","8552646","SARL_v6o7dfb9xv","msl000123","freq_resp","","","img/orange_2bandit_a.png","70","img/orange_2bandit_a.png","70","test","","","","","","","","","3","","","","","","","","","","",""
"null","","8552802","SARL_v6o7dfb9xv","msl000123","fixation","","","img/fixation.png","null","","","test","","","","","","","","","","","","","","","","","","","",""
"386","","8553194","SARL_v6o7dfb9xv","msl000123","freq","","","img/orange_2bandit_a2.png","70","","70","test","1","","","square","circle","64","62","12","3","0.967741935483871","","","","","","","","","",""
"null","","8553612","SARL_v6o7dfb9xv","msl000123","freq_resp","","","img/orange_2bandit_a.png","70","img/orange_2bandit_a.png","70","test","","","","","","","","","3","","","","","","","","","","",""
"null","","8553769","SARL_v6o7dfb9xv","msl000123","fixation","","","img/fixation.png","null","","","test","","","","","","","","","","","","","","","","","","","",""
"452","","8554225","SARL_v6o7dfb9xv","msl000123","infreq","","","img/green_2bandit_a2.png","68","","68","test","1","","","square","circle","65","63","13","3","0.9682539682539683","","","","","","","","","",""
"null","","8554579","SARL_v6o7dfb9xv","msl000123","infreq_resp","","","img/green_2bandit_a.png","68","img/green_2bandit_a.png","68","test","","","","","","","","","3","","","","","","","","","","",""
"null","","8554734","SARL_v6o7dfb9xv","msl000123","fixation","","","img/fixation.png","null","","","test","","","","","","","","","","","","","","","","","","","",""
"424","","8555163","SARL_v6o7dfb9xv","msl000123","freq","","","img/orange_2bandit_a2.png","70","","70","test","1","","","square","circle","66","64","14","3","0.96875","","","","","","","","","",""
"null","","8555545","SARL_v6o7dfb9xv","msl000123","freq_resp","","","img/orange_2bandit_a.png","70","img/orange_2bandit_a.png","70","test","","","","","","","","","3","","","","","","","","","","",""
"null","","8555700","SARL_v6o7dfb9xv","msl000123","fixation","","","img/fixation.png","null","","","test","","","","","","","","","","","","","","","","","","","",""
"357","","8556062","SARL_v6o7dfb9xv","msl000123","freq","","","img/orange_2bandit_a2.png","70","","70","test","1","","","square","circle","67","65","15","3","0.9692307692307692","","","","","","","","","",""
"null","","8556511","SARL_v6o7dfb9xv","msl000123","freq_resp","","","img/orange_2bandit_a.png","70","img/orange_2bandit_a.png","70","test","","","","","","","","","3","","","","","","","","","","",""
"null","","8556666","SARL_v6o7dfb9xv","msl000123","fixation","","","img/fixation.png","null","","","test","","","","","","","","","","","","","","","","","","","",""
"353","","8557023","SARL_v6o7dfb9xv","msl000123","freq","","","img/orange_2bandit_a2.png","70","","70","test","1","","","square","circle","68","66","16","3","0.9696969696969697","","","","","","","","","",""
"null","","8557476","SARL_v6o7dfb9xv","msl000123","freq_resp","","","img/orange_2bandit_a.png","70","img/orange_2bandit_a.png","70","test","","","","","","","","","3","","","","","","","","","","",""
"null","","8557631","SARL_v6o7dfb9xv","msl000123","fixation","","","img/fixation.png","null","","","test","","","","","","","","","","","","","","","","","","","",""
"353","","8557989","SARL_v6o7dfb9xv","msl000123","freq","","","img/orange_2bandit_a2.png","70","","70","test","1","","","square","circle","69","67","17","3","0.9701492537313433","","","","","","","","","",""
"null","","8558441","SARL_v6o7dfb9xv","msl000123","freq_resp","","","img/orange_2bandit_a.png","70","img/orange_2bandit_a.png","70","test","","","","","","","","","3","","","","","","","","","","",""
"null","","8558596","SARL_v6o7dfb9xv","msl000123","fixation","","","img/fixation.png","null","","","test","","","","","","","","","","","","","","","","","","","",""
"356","","8558957","SARL_v6o7dfb9xv","msl000123","freq","","","img/orange_2bandit_a2.png","70","","70","test","1","","","square","circle","70","68","18","3","0.9705882352941176","","","","","","","","","",""
"null","","8559407","SARL_v6o7dfb9xv","msl000123","freq_resp","","","img/orange_2bandit_a.png","70","img/orange_2bandit_a.png","70","test","","","","","","","","","3","","","","","","","","","","",""
"null","","8559562","SARL_v6o7dfb9xv","msl000123","fixation","","","img/fixation.png","null","","","test","","","","","","","","","","","","","","","","","","","",""
"444","","8560010","SARL_v6o7dfb9xv","msl000123","infreq","","","img/green_2bandit_a2.png","68","","68","test","1","","","square","circle","71","69","19","3","0.9710144927536232","","","","","","","","","",""
"null","","8560372","SARL_v6o7dfb9xv","msl000123","infreq_resp","","","img/green_2bandit_a.png","68","img/green_2bandit_a.png","68","test","","","","","","","","","3","","","","","","","","","","",""
"null","","8560527","SARL_v6o7dfb9xv","msl000123","fixation","","","img/fixation.png","null","","","test","","","","","","","","","","","","","","","","","","","",""
"401","","8560933","SARL_v6o7dfb9xv","msl000123","freq","","","img/orange_2bandit_a2.png","70","","70","test","1","","","square","circle","72","70","20","3","0.9714285714285714","","","","","","","","","",""
"null","","8561337","SARL_v6o7dfb9xv","msl000123","freq_resp","","","img/orange_2bandit_a.png","70","img/orange_2bandit_a.png","70","test","","","","","","","","","3","","","","","","","","","","",""
"null","","8561492","SARL_v6o7dfb9xv","msl000123","fixation","","","img/fixation.png","null","","","test","","","","","","","","","","","","","","","","","","","",""
"417","","8561914","SARL_v6o7dfb9xv","msl000123","freq","","","img/orange_2bandit_a2.png","70","","70","test","1","","","square","circle","73","71","21","3","0.971830985915493","","","","","","","","","",""
"null","","8562303","SARL_v6o7dfb9xv","msl000123","freq_resp","","","img/orange_2bandit_a.png","70","img/orange_2bandit_a.png","70","test","","","","","","","","","3","","","","","","","","","","",""
"null","","8562458","SARL_v6o7dfb9xv","msl000123","fixation","","","img/fixation.png","null","","","test","","","","","","","","","","","","","","","","","","","",""
"317","","8562779","SARL_v6o7dfb9xv","msl000123","freq","","","img/orange_2bandit_a2.png","70","","70","test","1","","","square","circle","74","72","22","3","0.9722222222222222","","","","","","","","","",""
"null","","8563268","SARL_v6o7dfb9xv","msl000123","freq_resp","","","img/orange_2bandit_a.png","70","img/orange_2bandit_a.png","70","test","","","","","","","","","3","","","","","","","","","","",""
"null","","8563424","SARL_v6o7dfb9xv","msl000123","fixation","","","img/fixation.png","null","","","test","","","","","","","","","","","","","","","","","","","",""
"374","","8563804","SARL_v6o7dfb9xv","msl000123","freq","","","img/orange_2bandit_a2.png","70","","70","test","1","","","square","circle","75","73","23","3","0.9726027397260274","","","","","","","","","",""
"null","","8564236","SARL_v6o7dfb9xv","msl000123","freq_resp","","","img/orange_2bandit_a.png","70","img/orange_2bandit_a.png","70","test","","","","","","","","","3","","","","","","","","","","",""
"null","","8564392","SARL_v6o7dfb9xv","msl000123","fixation","","","img/fixation.png","null","","","test","","","","","","","","","","","","","","","","","","","",""
"371","","8564768","SARL_v6o7dfb9xv","msl000123","freq","","","img/orange_2bandit_a2.png","70","","70","test","1","","","square","circle","76","74","24","3","0.972972972972973","","","","","","","","","",""
"null","","8565203","SARL_v6o7dfb9xv","msl000123","freq_resp","","","img/orange_2bandit_a.png","70","img/orange_2bandit_a.png","70","test","","","","","","","","","3","","","","","","","","","","",""
"null","","8565359","SARL_v6o7dfb9xv","msl000123","fixation","","","img/fixation.png","null","","","test","","","","","","","","","","","","","","","","","","","",""
"355","","8565720","SARL_v6o7dfb9xv","msl000123","freq","","","img/orange_2bandit_a2.png","70","","70","test","1","","","square","circle","77","75","25","3","0.9733333333333334","","","","","","","","","",""
"null","","8566171","SARL_v6o7dfb9xv","msl000123","freq_resp","","","img/orange_2bandit_a.png","70","img/orange_2bandit_a.png","70","test","","","","","","","","","3","","","","","","","","","","",""
"null","","8566326","SARL_v6o7dfb9xv","msl000123","fixation","","","img/fixation.png","null","","","test","","","","","","","","","","","","","","","","","","","",""
"332","","8566663","SARL_v6o7dfb9xv","msl000123","freq","","","img/orange_2bandit_a2.png","70","","70","test","1","","","square","circle","78","76","26","3","0.9736842105263158","","","","","","","","","",""
"null","","8567137","SARL_v6o7dfb9xv","msl000123","freq_resp","","","img/orange_2bandit_a.png","70","img/orange_2bandit_a.png","70","test","","","","","","","","","3","","","","","","","","","","",""
"null","","8567292","SARL_v6o7dfb9xv","msl000123","fixation","","","img/fixation.png","null","","","test","","","","","","","","","","","","","","","","","","","",""
"317","","8567614","SARL_v6o7dfb9xv","msl000123","freq","","","img/orange_2bandit_a2.png","70","","70","test","1","","","square","circle","79","77","27","3","0.974025974025974","","","","","","","","","",""
"null","","8568103","SARL_v6o7dfb9xv","msl000123","freq_resp","","","img/orange_2bandit_a.png","70","img/orange_2bandit_a.png","70","test","","","","","","","","","3","","","","","","","","","","",""
"null","","8568259","SARL_v6o7dfb9xv","msl000123","fixation","","","img/fixation.png","null","","","test","","","","","","","","","","","","","","","","","","","",""
"678","","8568943","SARL_v6o7dfb9xv","msl000123","rl","","","img/black_2bandit_a2.png","74","","0","test","","","1","square","circle","80","","0","3","","74","0.2","0.8","0.13440650692013523","0.8","0.2","0.8","square","3","0"
"null","","8569699","SARL_v6o7dfb9xv","msl000123","feedback","","","img/yay_L_a.png","null","","na","test","","","","","","","","","3","","74","0.2","0.8","","","","0.8","","3",""
"437","","8570141","SARL_v6o7dfb9xv","msl000123","freq","","","img/orange_2bandit_a2.png","70","","70","test","1","","","square","circle","81","78","1","4","0.9743589743589743","","","","","","","","","",""
"null","","8570511","SARL_v6o7dfb9xv","msl000123","freq_resp","","","img/orange_2bandit_a.png","70","img/orange_2bandit_a.png","70","test","","","","","","","","","4","","","","","","","","","","",""
"null","","8570667","SARL_v6o7dfb9xv","msl000123","fixation","","","img/fixation.png","null","","","test","","","","","","","","","","","","","","","","","","","",""
"679","","8571352","SARL_v6o7dfb9xv","msl000123","infreq","","","img/green_2bandit_a2.png","68","","68","test","1","","","square","circle","82","79","2","4","0.9746835443037974","","","","","","","","","",""
"null","","8571479","SARL_v6o7dfb9xv","msl000123","infreq_resp","","","img/green_2bandit_a.png","68","img/green_2bandit_a.png","68","test","","","","","","","","","4","","","","","","","","","","",""
"null","","8571636","SARL_v6o7dfb9xv","msl000123","fixation","","","img/fixation.png","null","","","test","","","","","","","","","","","","","","","","","","","",""
"404","","8572045","SARL_v6o7dfb9xv","msl000123","freq","","","img/orange_2bandit_a2.png","70","","70","test","1","","","square","circle","83","80","3","4","0.975","","","","","","","","","",""
"null","","8572446","SARL_v6o7dfb9xv","msl000123","freq_resp","","","img/orange_2bandit_a.png","70","img/orange_2bandit_a.png","70","test","","","","","","","","","4","","","","","","","","","","",""
"null","","8572602","SARL_v6o7dfb9xv","msl000123","fixation","","","img/fixation.png","null","","","test","","","","","","","","","","","","","","","","","","","",""
"360","","8572967","SARL_v6o7dfb9xv","msl000123","freq","","","img/orange_2bandit_a2.png","70","","70","test","1","","","square","circle","84","81","4","4","0.9753086419753086","","","","","","","","","",""
"null","","8573412","SARL_v6o7dfb9xv","msl000123","freq_resp","","","img/orange_2bandit_a.png","70","img/orange_2bandit_a.png","70","test","","","","","","","","","4","","","","","","","","","","",""
"null","","8573568","SARL_v6o7dfb9xv","msl000123","fixation","","","img/fixation.png","null","","","test","","","","","","","","","","","","","","","","","","","",""
"382","","8573955","SARL_v6o7dfb9xv","msl000123","freq","","","img/orange_2bandit_a2.png","70","","70","test","1","","","square","circle","85","82","5","4","0.975609756097561","","","","","","","","","",""
"null","","8574378","SARL_v6o7dfb9xv","msl000123","freq_resp","","","img/orange_2bandit_a.png","70","img/orange_2bandit_a.png","70","test","","","","","","","","","4","","","","","","","","","","",""
"null","","8574534","SARL_v6o7dfb9xv","msl000123","fixation","","","img/fixation.png","null","","","test","","","","","","","","","","","","","","","","","","","",""
"349","","8574889","SARL_v6o7dfb9xv","msl000123","freq","","","img/orange_2bandit_a2.png","70","","70","test","1","","","square","circle","86","83","6","4","0.9759036144578314","","","","","","","","","",""
"null","","8575345","SARL_v6o7dfb9xv","msl000123","freq_resp","","","img/orange_2bandit_a.png","70","img/orange_2bandit_a.png","70","test","","","","","","","","","4","","","","","","","","","","",""
"null","","8575501","SARL_v6o7dfb9xv","msl000123","fixation","","","img/fixation.png","null","","","test","","","","","","","","","","","","","","","","","","","",""
"361","","8575867","SARL_v6o7dfb9xv","msl000123","freq","","","img/orange_2bandit_a2.png","70","","70","test","1","","","square","circle","87","84","7","4","0.9761904761904762","","","","","","","","","",""
"null","","8576312","SARL_v6o7dfb9xv","msl000123","freq_resp","","","img/orange_2bandit_a.png","70","img/orange_2bandit_a.png","70","test","","","","","","","","","4","","","","","","","","","","",""
"null","","8576467","SARL_v6o7dfb9xv","msl000123","fixation","","","img/fixation.png","null","","","test","","","","","","","","","","","","","","","","","","","",""
"339","","8576811","SARL_v6o7dfb9xv","msl000123","freq","","","img/orange_2bandit_a2.png","70","","70","test","1","","","square","circle","88","85","8","4","0.9764705882352941","","","","","","","","","",""
"null","","8577277","SARL_v6o7dfb9xv","msl000123","freq_resp","","","img/orange_2bandit_a.png","70","img/orange_2bandit_a.png","70","test","","","","","","","","","4","","","","","","","","","","",""
"null","","8577433","SARL_v6o7dfb9xv","msl000123","fixation","","","img/fixation.png","null","","","test","","","","","","","","","","","","","","","","","","","",""
"381","","8577818","SARL_v6o7dfb9xv","msl000123","freq","","","img/orange_2bandit_a2.png","70","","70","test","1","","","square","circle","89","86","9","4","0.9767441860465116","","","","","","","","","",""
"null","","8578243","SARL_v6o7dfb9xv","msl000123","freq_resp","","","img/orange_2bandit_a.png","70","img/orange_2bandit_a.png","70","test","","","","","","","","","4","","","","","","","","","","",""
"null","","8578398","SARL_v6o7dfb9xv","msl000123","fixation","","","img/fixation.png","null","","","test","","","","","","","","","","","","","","","","","","","",""
"323","","8578726","SARL_v6o7dfb9xv","msl000123","freq","","","img/orange_2bandit_a2.png","70","","70","test","1","","","square","circle","90","87","10","4","0.9770114942528736","","","","","","","","","",""
"null","","8579209","SARL_v6o7dfb9xv","msl000123","freq_resp","","","img/orange_2bandit_a.png","70","img/orange_2bandit_a.png","70","test","","","","","","","","","4","","","","","","","","","","",""
"null","","8579363","SARL_v6o7dfb9xv","msl000123","fixation","","","img/fixation.png","null","","","test","","","","","","","","","","","","","","","","","","","",""
"342","","8579710","SARL_v6o7dfb9xv","msl000123","freq","","","img/orange_2bandit_a2.png","70","","70","test","1","","","square","circle","91","88","11","4","0.9772727272727273","","","","","","","","","",""
"null","","8580174","SARL_v6o7dfb9xv","msl000123","freq_resp","","","img/orange_2bandit_a.png","70","img/orange_2bandit_a.png","70","test","","","","","","","","","4","","","","","","","","","","",""
"null","","8580331","SARL_v6o7dfb9xv","msl000123","fixation","","","img/fixation.png","null","","","test","","","","","","","","","","","","","","","","","","","",""
"345","","8580681","SARL_v6o7dfb9xv","msl000123","freq","","","img/orange_2bandit_a2.png","70","","70","test","1","","","square","circle","92","89","12","4","0.9775280898876404","","","","","","","","","",""
"null","","8581142","SARL_v6o7dfb9xv","msl000123","freq_resp","","","img/orange_2bandit_a.png","70","img/orange_2bandit_a.png","70","test","","","","","","","","","4","","","","","","","","","","",""
"null","","8581298","SARL_v6o7dfb9xv","msl000123","fixation","","","img/fixation.png","null","","","test","","","","","","","","","","","","","","","","","","","",""
"284","","8581587","SARL_v6o7dfb9xv","msl000123","freq","","","img/orange_2bandit_a2.png","70","","70","test","1","","","square","circle","93","90","13","4","0.9777777777777777","","","","","","","","","",""
"null","","8582109","SARL_v6o7dfb9xv","msl000123","freq_resp","","","img/orange_2bandit_a.png","70","img/orange_2bandit_a.png","70","test","","","","","","","","","4","","","","","","","","","","",""
"null","","8582265","SARL_v6o7dfb9xv","msl000123","fixation","","","img/fixation.png","null","","","test","","","","","","","","","","","","","","","","","","","",""
"300","","8582570","SARL_v6o7dfb9xv","msl000123","freq","","","img/orange_2bandit_a2.png","70","","70","test","1","","","square","circle","94","91","14","4","0.978021978021978","","","","","","","","","",""
"null","","8583076","SARL_v6o7dfb9xv","msl000123","freq_resp","","","img/orange_2bandit_a.png","70","img/orange_2bandit_a.png","70","test","","","","","","","","","4","","","","","","","","","","",""
"null","","8583232","SARL_v6o7dfb9xv","msl000123","fixation","","","img/fixation.png","null","","","test","","","","","","","","","","","","","","","","","","","",""
"220","","8583458","SARL_v6o7dfb9xv","msl000123","freq","","","img/orange_2bandit_a2.png","70","","70","test","1","","","square","circle","95","92","15","4","0.9782608695652174","","","","","","","","","",""
"null","","8584044","SARL_v6o7dfb9xv","msl000123","freq_resp","","","img/orange_2bandit_a.png","70","img/orange_2bandit_a.png","70","test","","","","","","","","","4","","","","","","","","","","",""
"null","","8584199","SARL_v6o7dfb9xv","msl000123","fixation","","","img/fixation.png","null","","","test","","","","","","","","","","","","","","","","","","","",""
"243","","8584448","SARL_v6o7dfb9xv","msl000123","infreq","","","img/green_2bandit_a2.png","70","","68","test","0","","","square","circle","96","93","16","4","0.967741935483871","","","","","","","","","",""
"null","","8585010","SARL_v6o7dfb9xv","msl000123","infreq_resp","","","img/green_2bandit_a.png","70","img/green_2bandit_a.png","68","test","","","","","","","","","4","","","","","","","","","","",""
"null","","8585166","SARL_v6o7dfb9xv","msl000123","fixation","","","img/fixation.png","null","","","test","","","","","","","","","","","","","","","","","","","",""
"384","","8585556","SARL_v6o7dfb9xv","msl000123","freq","","","img/orange_2bandit_a2.png","70","","70","test","1","","","square","circle","97","94","17","4","0.9680851063829787","","","","","","","","","",""
"null","","8585977","SARL_v6o7dfb9xv","msl000123","freq_resp","","","img/orange_2bandit_a.png","70","img/orange_2bandit_a.png","70","test","","","","","","","","","4","","","","","","","","","","",""
"null","","8586132","SARL_v6o7dfb9xv","msl000123","fixation","","","img/fixation.png","null","","","test","","","","","","","","","","","","","","","","","","","",""
"378","","8586515","SARL_v6o7dfb9xv","msl000123","freq","","","img/orange_2bandit_a2.png","70","","70","test","1","","","square","circle","98","95","18","4","0.968421052631579","","","","","","","","","",""
"null","","8586944","SARL_v6o7dfb9xv","msl000123","freq_resp","","","img/orange_2bandit_a.png","70","img/orange_2bandit_a.png","70","test","","","","","","","","","4","","","","","","","","","","",""
"null","","8587099","SARL_v6o7dfb9xv","msl000123","fixation","","","img/fixation.png","null","","","test","","","","","","","","","","","","","","","","","","","",""
"222","","8587328","SARL_v6o7dfb9xv","msl000123","freq","","","img/orange_2bandit_a2.png","70","","70","test","1","","","square","circle","99","96","19","4","0.96875","","","","","","","","","",""
"null","","8587910","SARL_v6o7dfb9xv","msl000123","freq_resp","","","img/orange_2bandit_a.png","70","img/orange_2bandit_a.png","70","test","","","","","","","","","4","","","","","","","","","","",""
"null","","8588067","SARL_v6o7dfb9xv","msl000123","fixation","","","img/fixation.png","null","","","test","","","","","","","","","","","","","","","","","","","",""
"635","","8588706","SARL_v6o7dfb9xv","msl000123","freq","","","img/orange_2bandit_a2.png","70","","70","test","1","","","square","circle","100","97","20","4","0.9690721649484536","","","","","","","","","",""
"null","","8588877","SARL_v6o7dfb9xv","msl000123","freq_resp","","","img/orange_2bandit_a.png","70","img/orange_2bandit_a.png","70","test","","","","","","","","","4","","","","","","","","","","",""
"null","","8589032","SARL_v6o7dfb9xv","msl000123","fixation","","","img/fixation.png","null","","","test","","","","","","","","","","","","","","","","","","","",""
"658","","8589694","SARL_v6o7dfb9xv","msl000123","freq","","","img/orange_2bandit_a2.png","70","","70","test","1","","","square","circle","101","98","21","4","0.9693877551020408","","","","","","","","","",""
"null","","8589843","SARL_v6o7dfb9xv","msl000123","freq_resp","","","img/orange_2bandit_a.png","70","img/orange_2bandit_a.png","70","test","","","","","","","","","4","","","","","","","","","","",""
"null","","8589999","SARL_v6o7dfb9xv","msl000123","fixation","","","img/fixation.png","null","","","test","","","","","","","","","","","","","","","","","","","",""
"568","","8590573","SARL_v6o7dfb9xv","msl000123","freq","","","img/orange_2bandit_a2.png","70","","70","test","1","","","square","circle","102","99","22","4","0.9696969696969697","","","","","","","","","",""
"null","","8590811","SARL_v6o7dfb9xv","msl000123","freq_resp","","","img/orange_2bandit_a.png","70","img/orange_2bandit_a.png","70","test","","","","","","","","","4","","","","","","","","","","",""
"null","","8590967","SARL_v6o7dfb9xv","msl000123","fixation","","","img/fixation.png","null","","","test","","","","","","","","","","","","","","","","","","","",""
"422","","8591394","SARL_v6o7dfb9xv","msl000123","freq","","","img/orange_2bandit_a2.png","70","","70","test","1","","","square","circle","103","100","23","4","0.97","","","","","","","","","",""
"null","","8591777","SARL_v6o7dfb9xv","msl000123","freq_resp","","","img/orange_2bandit_a.png","70","img/orange_2bandit_a.png","70","test","","","","","","","","","4","","","","","","","","","","",""
"null","","8591932","SARL_v6o7dfb9xv","msl000123","fixation","","","img/fixation.png","null","","","test","","","","","","","","","","","","","","","","","","","",""
"360","","8592296","SARL_v6o7dfb9xv","msl000123","freq","","","img/orange_2bandit_a2.png","70","","70","test","1","","","square","circle","104","101","24","4","0.9702970297029703","","","","","","","","","",""
"null","","8592743","SARL_v6o7dfb9xv","msl000123","freq_resp","","","img/orange_2bandit_a.png","70","img/orange_2bandit_a.png","70","test","","","","","","","","","4","","","","","","","","","","",""
"null","","8592898","SARL_v6o7dfb9xv","msl000123","fixation","","","img/fixation.png","null","","","test","","","","","","","","","","","","","","","","","","","",""
"428","","8593331","SARL_v6o7dfb9xv","msl000123","freq","","","img/orange_2bandit_a2.png","70","","70","test","1","","","square","circle","105","102","25","4","0.9705882352941176","","","","","","","","","",""
"null","","8593709","SARL_v6o7dfb9xv","msl000123","freq_resp","","","img/orange_2bandit_a.png","70","img/orange_2bandit_a.png","70","test","","","","","","","","","4","","","","","","","","","","",""
"null","","8593865","SARL_v6o7dfb9xv","msl000123","fixation","","","img/fixation.png","null","","","test","","","","","","","","","","","","","","","","","","","",""
"387","","8594258","SARL_v6o7dfb9xv","msl000123","freq","","","img/orange_2bandit_a2.png","70","","70","test","1","","","square","circle","106","103","26","4","0.970873786407767","","","","","","","","","",""
"null","","8594678","SARL_v6o7dfb9xv","msl000123","freq_resp","","","img/orange_2bandit_a.png","70","img/orange_2bandit_a.png","70","test","","","","","","","","","4","","","","","","","","","","",""
"null","","8594833","SARL_v6o7dfb9xv","msl000123","fixation","","","img/fixation.png","null","","","test","","","","","","","","","","","","","","","","","","","",""
"378","","8595215","SARL_v6o7dfb9xv","msl000123","freq","","","img/orange_2bandit_a2.png","70","","70","test","1","","","square","circle","107","104","27","4","0.9711538461538461","","","","","","","","","",""
"null","","8595642","SARL_v6o7dfb9xv","msl000123","freq_resp","","","img/orange_2bandit_a.png","70","img/orange_2bandit_a.png","70","test","","","","","","","","","4","","","","","","","","","","",""
"null","","8595799","SARL_v6o7dfb9xv","msl000123","fixation","","","img/fixation.png","null","","","test","","","","","","","","","","","","","","","","","","","",""
"491","","8596294","SARL_v6o7dfb9xv","msl000123","rl","","","img/black_2bandit_a2.png","74","","0","test","","","0","square","circle","108","","0","4","","74","0.2","0.8","0.8973969487933416","0.8","0.2","0.8","square","4","0"
"null","","8597051","SARL_v6o7dfb9xv","msl000123","feedback","","","img/boo_L_a.png","null","","na","test","","","","","","","","","4","","74","0.2","0.8","","","","0.8","","4",""
"600","","8597655","SARL_v6o7dfb9xv","msl000123","freq","","","img/orange_2bandit_a2.png","70","","70","test","1","","","square","circle","109","105","1","5","0.9714285714285714","","","","","","","","","",""
"null","","8597861","SARL_v6o7dfb9xv","msl000123","freq_resp","","","img/orange_2bandit_a.png","70","img/orange_2bandit_a.png","70","test","","","","","","","","","5","","","","","","","","","","",""
"null","","8598016","SARL_v6o7dfb9xv","msl000123","fixation","","","img/fixation.png","null","","","test","","","","","","","","","","","","","","","","","","","",""
"678","","8598698","SARL_v6o7dfb9xv","msl000123","infreq","","","img/green_2bandit_a2.png","68","","68","test","1","","","square","circle","110","106","2","5","0.9716981132075472","","","","","","","","","",""
"null","","8598826","SARL_v6o7dfb9xv","msl000123","infreq_resp","","","img/green_2bandit_a.png","68","img/green_2bandit_a.png","68","test","","","","","","","","","5","","","","","","","","","","",""
"null","","8598981","SARL_v6o7dfb9xv","msl000123","fixation","","","img/fixation.png","null","","","test","","","","","","","","","","","","","","","","","","","",""
"null","","8599787","SARL_v6o7dfb9xv","msl000123","freq","","","img/orange_2bandit_a2.png","null","","70","test","0","","","square","circle","111","107","3","5","0.9626168224299065","","","","","","","","","",""
"null","","8599942","SARL_v6o7dfb9xv","msl000123","fixation","","","img/fixation.png","null","","","test","","","","","","","","","","","","","","","","","","","",""
"null","","8600748","SARL_v6o7dfb9xv","msl000123","freq","","","img/orange_2bandit_a2.png","null","","70","test","0","","","square","circle","112","108","4","5","0.9537037037037037","","","","","","","","","",""
"null","","8600904","SARL_v6o7dfb9xv","msl000123","fixation","","","img/fixation.png","null","","","test","","","","","","","","","","","","","","","","","","","",""
"12","","8600920","SARL_v6o7dfb9xv","msl000123","freq","","","img/orange_2bandit_a2.png","70","","70","test","1","","","square","circle","113","109","5","5","0.9541284403669725","","","","","","","","","",""
"null","","8601714","SARL_v6o7dfb9xv","msl000123","freq_resp","","","img/orange_2bandit_a.png","70","img/orange_2bandit_a.png","70","test","","","","","","","","","5","","","","","","","","","","",""
"null","","8601869","SARL_v6o7dfb9xv","msl000123","fixation","","","img/fixation.png","null","","","test","","","","","","","","","","","","","","","","","","","",""
"638","","8602512","SARL_v6o7dfb9xv","msl000123","freq","","","img/orange_2bandit_a2.png","70","","70","test","1","","","square","circle","114","110","6","5","0.9545454545454546","","","","","","","","","",""
"null","","8602680","SARL_v6o7dfb9xv","msl000123","freq_resp","","","img/orange_2bandit_a.png","70","img/orange_2bandit_a.png","70","test","","","","","","","","","5","","","","","","","","","","",""
"null","","8602836","SARL_v6o7dfb9xv","msl000123","fixation","","","img/fixation.png","null","","","test","","","","","","","","","","","","","","","","","","","",""
"429","","8603270","SARL_v6o7dfb9xv","msl000123","freq","","","img/orange_2bandit_a2.png","70","","70","test","1","","","square","circle","115","111","7","5","0.954954954954955","","","","","","","","","",""
"null","","8603647","SARL_v6o7dfb9xv","msl000123","freq_resp","","","img/orange_2bandit_a.png","70","img/orange_2bandit_a.png","70","test","","","","","","","","","5","","","","","","","","","","",""
"null","","8603803","SARL_v6o7dfb9xv","msl000123","fixation","","","img/fixation.png","null","","","test","","","","","","","","","","","","","","","","","","","",""
"335","","8604144","SARL_v6o7dfb9xv","msl000123","freq","","","img/orange_2bandit_a2.png","70","","70","test","1","","","square","circle","116","112","8","5","0.9553571428571429","","","","","","","","","",""
"null","","8604615","SARL_v6o7dfb9xv","msl000123","freq_resp","","","img/orange_2bandit_a.png","70","img/orange_2bandit_a.png","70","test","","","","","","","","","5","","","","","","","","","","",""
"null","","8604771","SARL_v6o7dfb9xv","msl000123","fixation","","","img/fixation.png","null","","","test","","","","","","","","","","","","","","","","","","","",""
"354","","8605130","SARL_v6o7dfb9xv","msl000123","freq","","","img/orange_2bandit_a2.png","70","","70","test","1","","","square","circle","117","113","9","5","0.9557522123893806","","","","","","","","","",""
"null","","8605583","SARL_v6o7dfb9xv","msl000123","freq_resp","","","img/orange_2bandit_a.png","70","img/orange_2bandit_a.png","70","test","","","","","","","","","5","","","","","","","","","","",""
"null","","8605740","SARL_v6o7dfb9xv","msl000123","fixation","","","img/fixation.png","null","","","test","","","","","","","","","","","","","","","","","","","",""
"351","","8606094","SARL_v6o7dfb9xv","msl000123","freq","","","img/orange_2bandit_a2.png","70","","70","test","1","","","square","circle","118","114","10","5","0.956140350877193","","","","","","","","","",""
"null","","8606549","SARL_v6o7dfb9xv","msl000123","freq_resp","","","img/orange_2bandit_a.png","70","img/orange_2bandit_a.png","70","test","","","","","","","","","5","","","","","","","","","","",""
"null","","8606705","SARL_v6o7dfb9xv","msl000123","fixation","","","img/fixation.png","null","","","test","","","","","","","","","","","","","","","","","","","",""
"342","","8607052","SARL_v6o7dfb9xv","msl000123","freq","","","img/orange_2bandit_a2.png","70","","70","test","1","","","square","circle","119","115","11","5","0.9565217391304348","","","","","","","","","",""
"null","","8607516","SARL_v6o7dfb9xv","msl000123","freq_resp","","","img/orange_2bandit_a.png","70","img/orange_2bandit_a.png","70","test","","","","","","","","","5","","","","","","","","","","",""
"null","","8607672","SARL_v6o7dfb9xv","msl000123","fixation","","","img/fixation.png","null","","","test","","","","","","","","","","","","","","","","","","","",""
"351","","8608027","SARL_v6o7dfb9xv","msl000123","freq","","","img/orange_2bandit_a2.png","70","","70","test","1","","","square","circle","120","116","12","5","0.9568965517241379","","","","","","","","","",""
"null","","8608483","SARL_v6o7dfb9xv","msl000123","freq_resp","","","img/orange_2bandit_a.png","70","img/orange_2bandit_a.png","70","test","","","","","","","","","5","","","","","","","","","","",""
"null","","8608638","SARL_v6o7dfb9xv","msl000123","fixation","","","img/fixation.png","null","","","test","","","","","","","","","","","","","","","","","","","",""
"328","","8608971","SARL_v6o7dfb9xv","msl000123","freq","","","img/orange_2bandit_a2.png","70","","70","test","1","","","square","circle","121","117","13","5","0.9572649572649573","","","","","","","","","",""
"null","","8609448","SARL_v6o7dfb9xv","msl000123","freq_resp","","","img/orange_2bandit_a.png","70","img/orange_2bandit_a.png","70","test","","","","","","","","","5","","","","","","","","","","",""
"null","","8609604","SARL_v6o7dfb9xv","msl000123","fixation","","","img/fixation.png","null","","","test","","","","","","","","","","","","","","","","","","","",""
"359","","8609969","SARL_v6o7dfb9xv","msl000123","freq","","","img/orange_2bandit_a2.png","70","","70","test","1","","","square","circle","122","118","14","5","0.9576271186440678","","","","","","","","","",""
"null","","8610415","SARL_v6o7dfb9xv","msl000123","freq_resp","","","img/orange_2bandit_a.png","70","img/orange_2bandit_a.png","70","test","","","","","","","","","5","","","","","","","","","","",""
"null","","8610571","SARL_v6o7dfb9xv","msl000123","fixation","","","img/fixation.png","null","","","test","","","","","","","","","","","","","","","","","","","",""
"315","","8610891","SARL_v6o7dfb9xv","msl000123","freq","","","img/orange_2bandit_a2.png","70","","70","test","1","","","square","circle","123","119","15","5","0.957983193277311","","","","","","","","","",""
"null","","8611382","SARL_v6o7dfb9xv","msl000123","freq_resp","","","img/orange_2bandit_a.png","70","img/orange_2bandit_a.png","70","test","","","","","","","","","5","","","","","","","","","","",""
"null","","8611538","SARL_v6o7dfb9xv","msl000123","fixation","","","img/fixation.png","null","","","test","","","","","","","","","","","","","","","","","","","",""
"333","","8611876","SARL_v6o7dfb9xv","msl000123","freq","","","img/orange_2bandit_a2.png","70","","70","test","1","","","square","circle","124","120","16","5","0.9583333333333334","","","","","","","","","",""
"null","","8612348","SARL_v6o7dfb9xv","msl000123","freq_resp","","","img/orange_2bandit_a.png","70","img/orange_2bandit_a.png","70","test","","","","","","","","","5","","","","","","","","","","",""
"null","","8612504","SARL_v6o7dfb9xv","msl000123","fixation","","","img/fixation.png","null","","","test","","","","","","","","","","","","","","","","","","","",""
"424","","8612934","SARL_v6o7dfb9xv","msl000123","infreq","","","img/green_2bandit_a2.png","68","","68","test","1","","","square","circle","125","121","17","5","0.9586776859504132","","","","","","","","","",""
"null","","8613316","SARL_v6o7dfb9xv","msl000123","infreq_resp","","","img/green_2bandit_a.png","68","img/green_2bandit_a.png","68","test","","","","","","","","","5","","","","","","","","","","",""
"null","","8613471","SARL_v6o7dfb9xv","msl000123","fixation","","","img/fixation.png","null","","","test","","","","","","","","","","","","","","","","","","","",""
"402","","8613878","SARL_v6o7dfb9xv","msl000123","freq","","","img/orange_2bandit_a2.png","70","","70","test","1","","","square","circle","126","122","18","5","0.9590163934426229","","","","","","","","","",""
"null","","8614283","SARL_v6o7dfb9xv","msl000123","freq_resp","","","img/orange_2bandit_a.png","70","img/orange_2bandit_a.png","70","test","","","","","","","","","5","","","","","","","","","","",""
"null","","8614438","SARL_v6o7dfb9xv","msl000123","fixation","","","img/fixation.png","null","","","test","","","","","","","","","","","","","","","","","","","",""
"369","","8614811","SARL_v6o7dfb9xv","msl000123","freq","","","img/orange_2bandit_a2.png","70","","70","test","1","","","square","circle","127","123","19","5","0.959349593495935","","","","","","","","","",""
"null","","8615249","SARL_v6o7dfb9xv","msl000123","freq_resp","","","img/orange_2bandit_a.png","70","img/orange_2bandit_a.png","70","test","","","","","","","","","5","","","","","","","","","","",""
"null","","8615404","SARL_v6o7dfb9xv","msl000123","fixation","","","img/fixation.png","null","","","test","","","","","","","","","","","","","","","","","","","",""
"931","","8616340","SARL_v6o7dfb9xv","msl000123","rl","","","img/black_2bandit_a2.png","75","","0","test","","","0","square","circle","128","","0","5","","75","0.2","0.8","0.2736622903180548","0.8","0.2","0.2","circle","5","0"
"null","","8617095","SARL_v6o7dfb9xv","msl000123","feedback","","","img/boo_R_a.png","null","","na","test","","","","","","","","","5","","75","0.2","0.8","","","","0.2","","5",""
"null","","8617900","SARL_v6o7dfb9xv","msl000123","freq","","","img/orange_2bandit_a2.png","null","","70","test","0","","","square","circle","129","124","1","6","0.9516129032258065","","","","","","","","","",""
"null","","8618055","SARL_v6o7dfb9xv","msl000123","fixation","","","img/fixation.png","null","","","test","","","","","","","","","","","","","","","","","","","",""
"null","","8618861","SARL_v6o7dfb9xv","msl000123","freq","","","img/orange_2bandit_a2.png","null","","70","test","0","","","square","circle","130","125","2","6","0.944","","","","","","","","","",""
"null","","8619016","SARL_v6o7dfb9xv","msl000123","fixation","","","img/fixation.png","null","","","test","","","","","","","","","","","","","","","","","","","",""
"20","","8619040","SARL_v6o7dfb9xv","msl000123","freq","","","img/orange_2bandit_a2.png","70","","70","test","1","","","square","circle","131","126","3","6","0.9444444444444444","","","","","","","","","",""
"null","","8619826","SARL_v6o7dfb9xv","msl000123","freq_resp","","","img/orange_2bandit_a.png","70","img/orange_2bandit_a.png","70","test","","","","","","","","","6","","","","","","","","","","",""
"null","","8619983","SARL_v6o7dfb9xv","msl000123","fixation","","","img/fixation.png","null","","","test","","","","","","","","","","","","","","","","","","","",""
"509","","8620496","SARL_v6o7dfb9xv","msl000123","infreq","","","img/green_2bandit_a2.png","68","","68","test","1","","","square","circle","132","127","4","6","0.9448818897637795","","","","","","","","","",""
"null","","8620793","SARL_v6o7dfb9xv","msl000123","infreq_resp","","","img/green_2bandit_a.png","68","img/green_2bandit_a.png","68","test","","","","","","","","","6","","","","","","","","","","",""
"null","","8620949","SARL_v6o7dfb9xv","msl000123","fixation","","","img/fixation.png","null","","","test","","","","","","","","","","","","","","","","","","","",""
"309","","8621263","SARL_v6o7dfb9xv","msl000123","freq","","","img/orange_2bandit_a2.png","70","","70","test","1","","","square","circle","133","128","5","6","0.9453125","","","","","","","","","",""
"null","","8621758","SARL_v6o7dfb9xv","msl000123","freq_resp","","","img/orange_2bandit_a.png","70","img/orange_2bandit_a.png","70","test","","","","","","","","","6","","","","","","","","","","",""
"null","","8621914","SARL_v6o7dfb9xv","msl000123","fixation","","","img/fixation.png","null","","","test","","","","","","","","","","","","","","","","","","","",""
"264","","8622184","SARL_v6o7dfb9xv","msl000123","freq","","","img/orange_2bandit_a2.png","70","","70","test","1","","","square","circle","134","129","6","6","0.9457364341085271","","","","","","","","","",""
"null","","8622726","SARL_v6o7dfb9xv","msl000123","freq_resp","","","img/orange_2bandit_a.png","70","img/orange_2bandit_a.png","70","test","","","","","","","","","6","","","","","","","","","","",""
"null","","8622881","SARL_v6o7dfb9xv","msl000123","fixation","","","img/fixation.png","null","","","test","","","","","","","","","","","","","","","","","","","",""
"294","","8623180","SARL_v6o7dfb9xv","msl000123","freq","","","img/orange_2bandit_a2.png","70","","70","test","1","","","square","circle","135","130","7","6","0.9461538461538461","","","","","","","","","",""
"null","","8623691","SARL_v6o7dfb9xv","msl000123","freq_resp","","","img/orange_2bandit_a.png","70","img/orange_2bandit_a.png","70","test","","","","","","","","","6","","","","","","","","","","",""
"null","","8623847","SARL_v6o7dfb9xv","msl000123","fixation","","","img/fixation.png","null","","","test","","","","","","","","","","","","","","","","","","","",""
"298","","8624149","SARL_v6o7dfb9xv","msl000123","freq","","","img/orange_2bandit_a2.png","70","","70","test","1","","","square","circle","136","131","8","6","0.9465648854961832","","","","","","","","","",""
"null","","8624657","SARL_v6o7dfb9xv","msl000123","freq_resp","","","img/orange_2bandit_a.png","70","img/orange_2bandit_a.png","70","test","","","","","","","","","6","","","","","","","","","","",""
"null","","8624813","SARL_v6o7dfb9xv","msl000123","fixation","","","img/fixation.png","null","","","test","","","","","","","","","","","","","","","","","","","",""
"279","","8625097","SARL_v6o7dfb9xv","msl000123","freq","","","img/orange_2bandit_a2.png","70","","70","test","1","","","square","circle","137","132","9","6","0.946969696969697","","","","","","","","","",""
"null","","8625624","SARL_v6o7dfb9xv","msl000123","freq_resp","","","img/orange_2bandit_a.png","70","img/orange_2bandit_a.png","70","test","","","","","","","","","6","","","","","","","","","","",""
"null","","8625779","SARL_v6o7dfb9xv","msl000123","fixation","","","img/fixation.png","null","","","test","","","","","","","","","","","","","","","","","","","",""
"417","","8626201","SARL_v6o7dfb9xv","msl000123","infreq","","","img/green_2bandit_a2.png","68","","68","test","1","","","square","circle","138","133","10","6","0.9473684210526315","","","","","","","","","",""
"null","","8626591","SARL_v6o7dfb9xv","msl000123","infreq_resp","","","img/green_2bandit_a.png","68","img/green_2bandit_a.png","68","test","","","","","","","","","6","","","","","","","","","","",""
"null","","8626745","SARL_v6o7dfb9xv","msl000123","fixation","","","img/fixation.png","null","","","test","","","","","","","","","","","","","","","","","","","",""
"359","","8627110","SARL_v6o7dfb9xv","msl000123","freq","","","img/orange_2bandit_a2.png","70","","70","test","1","","","square","circle","139","134","11","6","0.9477611940298507","","","","","","","","","",""
"null","","8627557","SARL_v6o7dfb9xv","msl000123","freq_resp","","","img/orange_2bandit_a.png","70","img/orange_2bandit_a.png","70","test","","","","","","","","","6","","","","","","","","","","",""
"null","","8627712","SARL_v6o7dfb9xv","msl000123","fixation","","","img/fixation.png","null","","","test","","","","","","","","","","","","","","","","","","","",""
"381","","8628099","SARL_v6o7dfb9xv","msl000123","freq","","","img/orange_2bandit_a2.png","70","","70","test","1","","","square","circle","140","135","12","6","0.9481481481481482","","","","","","","","","",""
"null","","8628524","SARL_v6o7dfb9xv","msl000123","freq_resp","","","img/orange_2bandit_a.png","70","img/orange_2bandit_a.png","70","test","","","","","","","","","6","","","","","","","","","","",""
"null","","8628680","SARL_v6o7dfb9xv","msl000123","fixation","","","img/fixation.png","null","","","test","","","","","","","","","","","","","","","","","","","",""
"366","","8629051","SARL_v6o7dfb9xv","msl000123","freq","","","img/orange_2bandit_a2.png","70","","70","test","1","","","square","circle","141","136","13","6","0.9485294117647058","","","","","","","","","",""
"null","","8629490","SARL_v6o7dfb9xv","msl000123","freq_resp","","","img/orange_2bandit_a.png","70","img/orange_2bandit_a.png","70","test","","","","","","","","","6","","","","","","","","","","",""
"null","","8629646","SARL_v6o7dfb9xv","msl000123","fixation","","","img/fixation.png","null","","","test","","","","","","","","","","","","","","","","","","","",""
"300","","8629950","SARL_v6o7dfb9xv","msl000123","freq","","","img/orange_2bandit_a2.png","70","","70","test","1","","","square","circle","142","137","14","6","0.948905109489051","","","","","","","","","",""
"null","","8630457","SARL_v6o7dfb9xv","msl000123","freq_resp","","","img/orange_2bandit_a.png","70","img/orange_2bandit_a.png","70","test","","","","","","","","","6","","","","","","","","","","",""
"null","","8630612","SARL_v6o7dfb9xv","msl000123","fixation","","","img/fixation.png","null","","","test","","","","","","","","","","","","","","","","","","","",""
"285","","8630903","SARL_v6o7dfb9xv","msl000123","freq","","","img/orange_2bandit_a2.png","70","","70","test","1","","","square","circle","143","138","15","6","0.9492753623188406","","","","","","","","","",""
"null","","8631423","SARL_v6o7dfb9xv","msl000123","freq_resp","","","img/orange_2bandit_a.png","70","img/orange_2bandit_a.png","70","test","","","","","","","","","6","","","","","","","","","","",""
"null","","8631579","SARL_v6o7dfb9xv","msl000123","fixation","","","img/fixation.png","null","","","test","","","","","","","","","","","","","","","","","","","",""
"289","","8631871","SARL_v6o7dfb9xv","msl000123","freq","","","img/orange_2bandit_a2.png","70","","70","test","1","","","square","circle","144","139","16","6","0.9496402877697842","","","","","","","","","",""
"null","","8632388","SARL_v6o7dfb9xv","msl000123","freq_resp","","","img/orange_2bandit_a.png","70","img/orange_2bandit_a.png","70","test","","","","","","","","","6","","","","","","","","","","",""
"null","","8632543","SARL_v6o7dfb9xv","msl000123","fixation","","","img/fixation.png","null","","","test","","","","","","","","","","","","","","","","","","","",""
"234","","8632781","SARL_v6o7dfb9xv","msl000123","freq","","","img/orange_2bandit_a2.png","70","","70","test","1","","","square","circle","145","140","17","6","0.95","","","","","","","","","",""
"null","","8633353","SARL_v6o7dfb9xv","msl000123","freq_resp","","","img/orange_2bandit_a.png","70","img/orange_2bandit_a.png","70","test","","","","","","","","","6","","","","","","","","","","",""
"null","","8633509","SARL_v6o7dfb9xv","msl000123","fixation","","","img/fixation.png","null","","","test","","","","","","","","","","","","","","","","","","","",""
"282","","8633797","SARL_v6o7dfb9xv","msl000123","freq","","","img/orange_2bandit_a2.png","70","","70","test","1","","","square","circle","146","141","18","6","0.950354609929078","","","","","","","","","",""
"null","","8634321","SARL_v6o7dfb9xv","msl000123","freq_resp","","","img/orange_2bandit_a.png","70","img/orange_2bandit_a.png","70","test","","","","","","","","","6","","","","","","","","","","",""
"null","","8634476","SARL_v6o7dfb9xv","msl000123","fixation","","","img/fixation.png","null","","","test","","","","","","","","","","","","","","","","","","","",""
"279","","8634761","SARL_v6o7dfb9xv","msl000123","freq","","","img/orange_2bandit_a2.png","70","","70","test","1","","","square","circle","147","142","19","6","0.9507042253521126","","","","","","","","","",""
"null","","8635287","SARL_v6o7dfb9xv","msl000123","freq_resp","","","img/orange_2bandit_a.png","70","img/orange_2bandit_a.png","70","test","","","","","","","","","6","","","","","","","","","","",""
"null","","8635445","SARL_v6o7dfb9xv","msl000123","fixation","","","img/fixation.png","null","","","test","","","","","","","","","","","","","","","","","","","",""
"306","","8635755","SARL_v6o7dfb9xv","msl000123","freq","","","img/orange_2bandit_a2.png","70","","70","test","1","","","square","circle","148","143","20","6","0.951048951048951","","","","","","","","","",""
"null","","8636255","SARL_v6o7dfb9xv","msl000123","freq_resp","","","img/orange_2bandit_a.png","70","img/orange_2bandit_a.png","70","test","","","","","","","","","6","","","","","","","","","","",""
"null","","8636411","SARL_v6o7dfb9xv","msl000123","fixation","","","img/fixation.png","null","","","test","","","","","","","","","","","","","","","","","","","",""
"333","","8636749","SARL_v6o7dfb9xv","msl000123","freq","","","img/orange_2bandit_a2.png","70","","70","test","1","","","square","circle","149","144","21","6","0.9513888888888888","","","","","","","","","",""
