"rt","responses","time_elapsed","subject","demoID","trialType","rlType","attType","stimulus","key_press","stim","corrresp","phase","corr","pracCounter","reward","bandOne","bandTwo","trialNum","attentionNum","attentionRunNum","blockNum","performance","bandChosen","circleVal","squareVal","coin","bandOneVal","bandTwoVal","pReward","shapeChosen","rlNum","badFlag"
"3320452","{""Q0"":""msl000119""}","3320482","SARL_v67aa64utj","msl000119","","","","","","","","","","","","","","","","","","","","","","","","","","","",""
"959","","3321448","SARL_v67aa64utj","msl000119","","","","","","","","","","","","","","","","","","","","","","","","","","","",""
"","","3323621","SARL_v67aa64utj","msl000119","fullscreen","fullscreen","fullscreen","","","","","","","","","","","","","","","","","","","","","","","","",""
"95523","","3419149","SARL_v67aa64utj","msl000119","","","","","","","","","","","","","","","","","","","","","","","","","","","",""
"null","","3419955","SARL_v67aa64utj","msl000119","freqPrac","","","img/orange_2bandit_b2.png","null","img/orange_2bandit_b2.png","70","prac","0","1","","","","","","","","","","","","","","","","","",""
"null","","3420962","SARL_v67aa64utj","msl000119","feedback","","","img/tooSlow.png","null","","na","prac","","","","","","","","","","","","","","","","","","","",""
"null","","3421118","SARL_v67aa64utj","msl000119","fixation","","","img/fixation.png","null","","","prac","","","","","","","","","","","","","","","","","","","",""
"771","","3421895","SARL_v67aa64utj","msl000119","infreqPrac","","","img/green_2bandit_b2.png","68","img/green_2bandit_b2.png","68","prac","1","1","","","","","","","","","","","","","","","","","",""
"771","","3421930","SARL_v67aa64utj","msl000119","infreqPrac_resp","","","img/green_2bandit_b.png","68","img/green_2bandit_b.png","68","prac","","","","","","","","","","","","","","","","","","","",""
"null","","3422086","SARL_v67aa64utj","msl000119","fixation","","","img/fixation.png","null","","","prac","","","","","","","","","","","","","","","","","","","",""
"null","","3422891","SARL_v67aa64utj","msl000119","freqPrac","","","img/orange_2bandit_b2.png","null","img/orange_2bandit_b2.png","70","prac","0","2","","","","","","","","","","","","","","","","","",""
"null","","3423898","SARL_v67aa64utj","msl000119","feedback","","","img/tooSlow.png","null","","na","prac","","","","","","","","","","","","","","","","","","","",""
"null","","3424053","SARL_v67aa64utj","msl000119","fixation","","","img/fixation.png","null","","","prac","","","","","","","","","","","","","","","","","","","",""
"646","","3424705","SARL_v67aa64utj","msl000119","infreqPrac","","","img/green_2bandit_b2.png","68","img/green_2bandit_b2.png","68","prac","1","2","","","","","","","","","","","","","","","","","",""
"646","","3424866","SARL_v67aa64utj","msl000119","infreqPrac_resp","","","img/green_2bandit_b.png","68","img/green_2bandit_b.png","68","prac","","","","","","","","","","","","","","","","","","","",""
"null","","3425020","SARL_v67aa64utj","msl000119","fixation","","","img/fixation.png","null","","","prac","","","","","","","","","","","","","","","","","","","",""
"499","","3425524","SARL_v67aa64utj","msl000119","infreqPrac","","","img/green_2bandit_b2.png","68","img/green_2bandit_b2.png","68","prac","1","2","","","","","","","","","","","","","","","","","",""
"499","","3425833","SARL_v67aa64utj","msl000119","infreqPrac_resp","","","img/green_2bandit_b.png","68","img/green_2bandit_b.png","68","prac","","","","","","","","","","","","","","","","","","","",""
"null","","3425988","SARL_v67aa64utj","msl000119","fixation","","","img/fixation.png","null","","","prac","","","","","","","","","","","","","","","","","","","",""
"458","","3426451","SARL_v67aa64utj","msl000119","infreqPrac","","","img/green_2bandit_b2.png","68","img/green_2bandit_b2.png","68","prac","1","2","","","","","","","","","","","","","","","","","",""
"458","","3426799","SARL_v67aa64utj","msl000119","infreqPrac_resp","","","img/green_2bandit_b.png","68","img/green_2bandit_b.png","68","prac","","","","","","","","","","","","","","","","","","","",""
"null","","3426955","SARL_v67aa64utj","msl000119","fixation","","","img/fixation.png","null","","","prac","","","","","","","","","","","","","","","","","","","",""
"576","","3427534","SARL_v67aa64utj","msl000119","freqPrac","","","img/orange_2bandit_b2.png","70","img/orange_2bandit_b2.png","70","prac","1","2","","","","","","","","","","","","","","","","","",""
"576","","3427764","SARL_v67aa64utj","msl000119","freqPrac_resp","","","img/orange_2bandit_b.png","70","img/orange_2bandit_b.png","70","prac","","","","","","","","","","","","","","","","","","","",""
"null","","3427920","SARL_v67aa64utj","msl000119","fixation","","","img/fixation.png","null","","","prac","","","","","","","","","","","","","","","","","","","",""
"578","","3428503","SARL_v67aa64utj","msl000119","infreqPrac","","","img/green_2bandit_b2.png","68","img/green_2bandit_b2.png","68","prac","1","2","","","","","","","","","","","","","","","","","",""
"578","","3428729","SARL_v67aa64utj","msl000119","infreqPrac_resp","","","img/green_2bandit_b.png","68","img/green_2bandit_b.png","68","prac","","","","","","","","","","","","","","","","","","","",""
"null","","3428886","SARL_v67aa64utj","msl000119","fixation","","","img/fixation.png","null","","","prac","","","","","","","","","","","","","","","","","","","",""
"531","","3429422","SARL_v67aa64utj","msl000119","freqPrac","","","img/orange_2bandit_b2.png","70","img/orange_2bandit_b2.png","70","prac","1","2","","","","","","","","","","","","","","","","","",""
"531","","3429697","SARL_v67aa64utj","msl000119","freqPrac_resp","","","img/orange_2bandit_b.png","70","img/orange_2bandit_b.png","70","prac","","","","","","","","","","","","","","","","","","","",""
"null","","3429852","SARL_v67aa64utj","msl000119","fixation","","","img/fixation.png","null","","","prac","","","","","","","","","","","","","","","","","","","",""
"498","","3430355","SARL_v67aa64utj","msl000119","freqPrac","","","img/orange_2bandit_b2.png","70","img/orange_2bandit_b2.png","70","prac","1","2","","","","","","","","","","","","","","","","","",""
"498","","3430663","SARL_v67aa64utj","msl000119","freqPrac_resp","","","img/orange_2bandit_b.png","70","img/orange_2bandit_b.png","70","prac","","","","","","","","","","","","","","","","","","","",""
"null","","3430818","SARL_v67aa64utj","msl000119","fixation","","","img/fixation.png","null","","","prac","","","","","","","","","","","","","","","","","","","",""
"50946","","3481768","SARL_v67aa64utj","msl000119","","","","","","","","prac","","","","","","","","","","","","","","","","","","","",""
"null","","3483274","SARL_v67aa64utj","msl000119","rlPractice","","","img/black_2bandit_b2.png","null","img/black_2bandit_b2.png","","prac","","","75","","","","","","","","","","","","","","","","",""
"null","","3484030","SARL_v67aa64utj","msl000119","feedback","","","img/tooSlow.png","null","","na","prac","","","","","","","","","","","","","","","","","","","",""
"null","","3484186","SARL_v67aa64utj","msl000119","fixation","","","img/fixation.png","null","","","prac","","","","","","","","","","","","","","","","","","","",""
"null","","3485692","SARL_v67aa64utj","msl000119","rlPractice","","","img/black_2bandit_b2.png","null","img/black_2bandit_b2.png","","prac","","","75","","","","","","","","","","","","","","","","",""
"null","","3486448","SARL_v67aa64utj","msl000119","feedback","","","img/tooSlow.png","null","","na","prac","","","","","","","","","","","","","","","","","","","",""
"null","","3486603","SARL_v67aa64utj","msl000119","fixation","","","img/fixation.png","null","","","prac","","","","","","","","","","","","","","","","","","","",""
"422","","3487029","SARL_v67aa64utj","msl000119","rlPractice","","","img/black_2bandit_b2.png","74","img/black_2bandit_b2.png","","prac","","","75","","","","","","","","","","","","","","","","",""
"null","","3487784","SARL_v67aa64utj","msl000119","feedback","","","img/boo_L_b.png","null","","na","prac","","","","","","","","","","","","","","","","","","","",""
"null","","3487939","SARL_v67aa64utj","msl000119","fixation","","","img/fixation.png","null","","","prac","","","","","","","","","","","","","","","","","","","",""
"599","","3488543","SARL_v67aa64utj","msl000119","rlPractice","","","img/black_2bandit_b2.png","74","img/black_2bandit_b2.png","","prac","","","75","","","","","","","","","","","","","","","","",""
"null","","3489298","SARL_v67aa64utj","msl000119","feedback","","","img/boo_L_b.png","null","","na","prac","","","","","","","","","","","","","","","","","","","",""
"null","","3489454","SARL_v67aa64utj","msl000119","fixation","","","img/fixation.png","null","","","prac","","","","","","","","","","","","","","","","","","","",""
"694","","3490153","SARL_v67aa64utj","msl000119","rlPractice","","","img/black_2bandit_b2.png","74","img/black_2bandit_b2.png","","prac","","","75","","","","","","","","","","","","","","","","",""
"null","","3490909","SARL_v67aa64utj","msl000119","feedback","","","img/boo_L_b.png","null","","na","prac","","","","","","","","","","","","","","","","","","","",""
"null","","3491064","SARL_v67aa64utj","msl000119","fixation","","","img/fixation.png","null","","","prac","","","","","","","","","","","","","","","","","","","",""
"820","","3491890","SARL_v67aa64utj","msl000119","rlPractice","","","img/black_2bandit_b2.png","75","img/black_2bandit_b2.png","","prac","","","75","","","","","","","","","","","","","","","","",""
"null","","3492646","SARL_v67aa64utj","msl000119","feedback","","","img/yay_R_b.png","null","","na","prac","","","","","","","","","","","","","","","","","","","",""
"null","","3492800","SARL_v67aa64utj","msl000119","fixation","","","img/fixation.png","null","","","prac","","","","","","","","","","","","","","","","","","","",""
"816","","3493620","SARL_v67aa64utj","msl000119","rlPractice","","","img/black_2bandit_b2.png","75","img/black_2bandit_b2.png","","prac","","","75","","","","","","","","","","","","","","","","",""
"null","","3494376","SARL_v67aa64utj","msl000119","feedback","","","img/yay_R_b.png","null","","na","prac","","","","","","","","","","","","","","","","","","","",""
"null","","3494532","SARL_v67aa64utj","msl000119","fixation","","","img/fixation.png","null","","","prac","","","","","","","","","","","","","","","","","","","",""
"47238","","3541774","SARL_v67aa64utj","msl000119","","","","","","","","prac","","","","","","","","","","","","","","","","","","","",""
"750","","3542528","SARL_v67aa64utj","msl000119","mixAttFreqPrac","","","img/orange_2bandit_b2.png","68","img/orange_2bandit_b2.png","70","prac","","","","","","","","","","","","","","","","","","","",""
"750","","3542584","SARL_v67aa64utj","msl000119","freqPrac_resp","","","img/orange_2bandit_b.png","68","img/orange_2bandit_b.png","70","prac","","","","","","","","","","","","","","","","","","","",""
"null","","3542739","SARL_v67aa64utj","msl000119","fixation","","","img/fixation.png","null","","","prac","","","","","","","","","","","","","","","","","","","",""
"738","","3543481","SARL_v67aa64utj","msl000119","mixAttInfreqPrac","","","img/green_2bandit_b2.png","68","img/green_2bandit_b2.png","68","prac","","","","","","","","","","","","","","","","","","","",""
"738","","3543550","SARL_v67aa64utj","msl000119","infreqPrac_resp","","","img/green_2bandit_b.png","68","img/orange_2bandit_b.png","68","prac","","","","","","","","","","","","","","","","","","","",""
"null","","3543705","SARL_v67aa64utj","msl000119","fixation","","","img/fixation.png","null","","","prac","","","","","","","","","","","","","","","","","","","",""
"435","","3544145","SARL_v67aa64utj","msl000119","mixAttInfreqPrac","","","img/green_2bandit_b2.png","68","img/green_2bandit_b2.png","68","prac","","","","","","","","","","","","","","","","","","","",""
"435","","3544516","SARL_v67aa64utj","msl000119","infreqPrac_resp","","","img/green_2bandit_b.png","68","img/orange_2bandit_b.png","68","prac","","","","","","","","","","","","","","","","","","","",""
"null","","3544672","SARL_v67aa64utj","msl000119","fixation","","","img/fixation.png","null","","","prac","","","","","","","","","","","","","","","","","","","",""
"385","","3545062","SARL_v67aa64utj","msl000119","mixAttInfreqPrac","","","img/green_2bandit_b2.png","68","img/green_2bandit_b2.png","68","prac","","","","","","","","","","","","","","","","","","","",""
"385","","3545481","SARL_v67aa64utj","msl000119","infreqPrac_resp","","","img/green_2bandit_b.png","68","img/orange_2bandit_b.png","68","prac","","","","","","","","","","","","","","","","","","","",""
"null","","3545637","SARL_v67aa64utj","msl000119","fixation","","","img/fixation.png","null","","","prac","","","","","","","","","","","","","","","","","","","",""
"553","","3546195","SARL_v67aa64utj","msl000119","mixAttFreqPrac","","","img/orange_2bandit_b2.png","70","img/orange_2bandit_b2.png","70","prac","","","","","","","","","","","","","","","","","","","",""
"553","","3546448","SARL_v67aa64utj","msl000119","freqPrac_resp","","","img/orange_2bandit_b.png","70","img/orange_2bandit_b.png","70","prac","","","","","","","","","","","","","","","","","","","",""
"null","","3546603","SARL_v67aa64utj","msl000119","fixation","","","img/fixation.png","null","","","prac","","","","","","","","","","","","","","","","","","","",""
"621","","3547228","SARL_v67aa64utj","msl000119","mixRLPractice","","","img/black_2bandit_b2.png","75","img/black_2bandit_b2.png","","prac","","","","","","","","","","","","","","","","","","","",""
"null","","3547985","SARL_v67aa64utj","msl000119","feedback","","","img/boo_R_b.png","null","","na","prac","","","","","","","","","","","","","","","","","","","",""
"null","","3548792","SARL_v67aa64utj","msl000119","mixAttFreqPrac","","","img/orange_2bandit_b2.png","null","img/orange_2bandit_b2.png","70","prac","","","","","","","","","","","","","","","","","","","",""
"null","","3548947","SARL_v67aa64utj","msl000119","fixation","","","img/fixation.png","null","","","prac","","","","","","","","","","","","","","","","","","","",""
"2","","3548954","SARL_v67aa64utj","msl000119","mixAttInfreqPrac","","","img/green_2bandit_b2.png","68","img/green_2bandit_b2.png","68","prac","","","","","","","","","","","","","","","","","","","",""
"2","","3549757","SARL_v67aa64utj","msl000119","infreqPrac_resp","","","img/green_2bandit_b.png","68","img/orange_2bandit_b.png","68","prac","","","","","","","","","","","","","","","","","","","",""
"null","","3549913","SARL_v67aa64utj","msl000119","fixation","","","img/fixation.png","null","","","prac","","","","","","","","","","","","","","","","","","","",""
"607","","3550525","SARL_v67aa64utj","msl000119","mixAttFreqPrac","","","img/orange_2bandit_b2.png","70","img/orange_2bandit_b2.png","70","prac","","","","","","","","","","","","","","","","","","","",""
"607","","3550725","SARL_v67aa64utj","msl000119","freqPrac_resp","","","img/orange_2bandit_b.png","70","img/orange_2bandit_b.png","70","prac","","","","","","","","","","","","","","","","","","","",""
"null","","3550881","SARL_v67aa64utj","msl000119","fixation","","","img/fixation.png","null","","","prac","","","","","","","","","","","","","","","","","","","",""
"584","","3551468","SARL_v67aa64utj","msl000119","mixAttFreqPrac","","","img/orange_2bandit_b2.png","70","img/orange_2bandit_b2.png","70","prac","","","","","","","","","","","","","","","","","","","",""
"584","","3551690","SARL_v67aa64utj","msl000119","freqPrac_resp","","","img/orange_2bandit_b.png","70","img/orange_2bandit_b.png","70","prac","","","","","","","","","","","","","","","","","","","",""
"null","","3551846","SARL_v67aa64utj","msl000119","fixation","","","img/fixation.png","null","","","prac","","","","","","","","","","","","","","","","","","","",""
"437","","3552289","SARL_v67aa64utj","msl000119","mixAttInfreqPrac","","","img/green_2bandit_b2.png","68","img/green_2bandit_b2.png","68","prac","","","","","","","","","","","","","","","","","","","",""
"437","","3552657","SARL_v67aa64utj","msl000119","infreqPrac_resp","","","img/green_2bandit_b.png","68","img/orange_2bandit_b.png","68","prac","","","","","","","","","","","","","","","","","","","",""
"null","","3552813","SARL_v67aa64utj","msl000119","fixation","","","img/fixation.png","null","","","prac","","","","","","","","","","","","","","","","","","","",""
"588","","3553405","SARL_v67aa64utj","msl000119","mixRLPractice","","","img/black_2bandit_b2.png","75","img/black_2bandit_b2.png","","prac","","","","","","","","","","","","","","","","","","","",""
"null","","3554162","SARL_v67aa64utj","msl000119","feedback","","","img/yay_R_b.png","null","","na","prac","","","","","","","","","","","","","","","","","","","",""
"55035","","3609202","SARL_v67aa64utj","msl000119","","","","","","","","prac","","","","","","","","","","","","","","","","","","","",""
"null","","3610007","SARL_v67aa64utj","msl000119","freq","","","img/orange_2bandit_b2.png","null","","70","test","0","","","circle","square","1","1","1","1","0","","","","","","","","","",""
"null","","3610163","SARL_v67aa64utj","msl000119","fixation","","","img/fixation.png","null","","","test","","","","","","","","","","","","","","","","","","","",""
"598","","3610766","SARL_v67aa64utj","msl000119","freq","","","img/orange_2bandit_b2.png","70","","70","test","1","","","circle","square","2","2","2","1","0.5","","","","","","","","","",""
"null","","3610975","SARL_v67aa64utj","msl000119","freq_resp","","","img/orange_2bandit_b.png","70","img/orange_2bandit_b.png","70","test","","","","","","","","","1","","","","","","","","","","",""
"null","","3611129","SARL_v67aa64utj","msl000119","fixation","","","img/fixation.png","null","","","test","","","","","","","","","","","","","","","","","","","",""
"385","","3611519","SARL_v67aa64utj","msl000119","freq","","","img/orange_2bandit_b2.png","70","","70","test","1","","","circle","square","3","3","3","1","0.6666666666666666","","","","","","","","","",""
"null","","3611939","SARL_v67aa64utj","msl000119","freq_resp","","","img/orange_2bandit_b.png","70","img/orange_2bandit_b.png","70","test","","","","","","","","","1","","","","","","","","","","",""
"null","","3612095","SARL_v67aa64utj","msl000119","fixation","","","img/fixation.png","null","","","test","","","","","","","","","","","","","","","","","","","",""
"427","","3612526","SARL_v67aa64utj","msl000119","infreq","","","img/green_2bandit_b2.png","68","","68","test","1","","","circle","square","4","4","4","1","0.75","","","","","","","","","",""
"null","","3612906","SARL_v67aa64utj","msl000119","infreq_resp","","","img/green_2bandit_b.png","68","img/green_2bandit_b.png","68","test","","","","","","","","","1","","","","","","","","","","",""
"null","","3613060","SARL_v67aa64utj","msl000119","fixation","","","img/fixation.png","null","","","test","","","","","","","","","","","","","","","","","","","",""
"395","","3613461","SARL_v67aa64utj","msl000119","freq","","","img/orange_2bandit_b2.png","70","","70","test","1","","","circle","square","5","5","5","1","0.8","","","","","","","","","",""
"null","","3613871","SARL_v67aa64utj","msl000119","freq_resp","","","img/orange_2bandit_b.png","70","img/orange_2bandit_b.png","70","test","","","","","","","","","1","","","","","","","","","","",""
"null","","3614026","SARL_v67aa64utj","msl000119","fixation","","","img/fixation.png","null","","","test","","","","","","","","","","","","","","","","","","","",""
"712","","3614742","SARL_v67aa64utj","msl000119","freq","","","img/orange_2bandit_b2.png","68","","70","test","0","","","circle","square","6","6","6","1","0.6666666666666666","","","","","","","","","",""
"null","","3614836","SARL_v67aa64utj","msl000119","freq_resp","","","img/orange_2bandit_b.png","68","img/orange_2bandit_b.png","70","test","","","","","","","","","1","","","","","","","","","","",""
"null","","3614992","SARL_v67aa64utj","msl000119","fixation","","","img/fixation.png","null","","","test","","","","","","","","","","","","","","","","","","","",""
"602","","3615597","SARL_v67aa64utj","msl000119","freq","","","img/orange_2bandit_b2.png","70","","70","test","1","","","circle","square","7","7","7","1","0.7142857142857143","","","","","","","","","",""
"null","","3615800","SARL_v67aa64utj","msl000119","freq_resp","","","img/orange_2bandit_b.png","70","img/orange_2bandit_b.png","70","test","","","","","","","","","1","","","","","","","","","","",""
"null","","3615956","SARL_v67aa64utj","msl000119","fixation","","","img/fixation.png","null","","","test","","","","","","","","","","","","","","","","","","","",""
"560","","3616521","SARL_v67aa64utj","msl000119","freq","","","img/orange_2bandit_b2.png","70","","70","test","1","","","circle","square","8","8","8","1","0.75","","","","","","","","","",""
"null","","3616766","SARL_v67aa64utj","msl000119","freq_resp","","","img/orange_2bandit_b.png","70","img/orange_2bandit_b.png","70","test","","","","","","","","","1","","","","","","","","","","",""
"null","","3616921","SARL_v67aa64utj","msl000119","fixation","","","img/fixation.png","null","","","test","","","","","","","","","","","","","","","","","","","",""
"574","","3617500","SARL_v67aa64utj","msl000119","freq","","","img/orange_2bandit_b2.png","70","","70","test","1","","","circle","square","9","9","9","1","0.7777777777777778","","","","","","","","","",""
"null","","3617731","SARL_v67aa64utj","msl000119","freq_resp","","","img/orange_2bandit_b.png","70","img/orange_2bandit_b.png","70","test","","","","","","","","","1","","","","","","","","","","",""
"null","","3617887","SARL_v67aa64utj","msl000119","fixation","","","img/fixation.png","null","","","test","","","","","","","","","","","","","","","","","","","",""
"481","","3618372","SARL_v67aa64utj","msl000119","freq","","","img/orange_2bandit_b2.png","70","","70","test","1","","","circle","square","10","10","10","1","0.8","","","","","","","","","",""
"null","","3618696","SARL_v67aa64utj","msl000119","freq_resp","","","img/orange_2bandit_b.png","70","img/orange_2bandit_b.png","70","test","","","","","","","","","1","","","","","","","","","","",""
"null","","3618853","SARL_v67aa64utj","msl000119","fixation","","","img/fixation.png","null","","","test","","","","","","","","","","","","","","","","","","","",""
"343","","3619202","SARL_v67aa64utj","msl000119","freq","","","img/orange_2bandit_b2.png","70","","70","test","1","","","circle","square","11","11","11","1","0.8181818181818182","","","","","","","","","",""
"null","","3619665","SARL_v67aa64utj","msl000119","freq_resp","","","img/orange_2bandit_b.png","70","img/orange_2bandit_b.png","70","test","","","","","","","","","1","","","","","","","","","","",""
"null","","3619819","SARL_v67aa64utj","msl000119","fixation","","","img/fixation.png","null","","","test","","","","","","","","","","","","","","","","","","","",""
"285","","3620110","SARL_v67aa64utj","msl000119","freq","","","img/orange_2bandit_b2.png","70","","70","test","1","","","circle","square","12","12","12","1","0.8333333333333334","","","","","","","","","",""
"null","","3620631","SARL_v67aa64utj","msl000119","freq_resp","","","img/orange_2bandit_b.png","70","img/orange_2bandit_b.png","70","test","","","","","","","","","1","","","","","","","","","","",""
"null","","3620786","SARL_v67aa64utj","msl000119","fixation","","","img/fixation.png","null","","","test","","","","","","","","","","","","","","","","","","","",""
"276","","3621069","SARL_v67aa64utj","msl000119","infreq","","","img/green_2bandit_b2.png","70","","68","test","0","","","circle","square","13","13","13","1","0.7692307692307693","","","","","","","","","",""
"null","","3621599","SARL_v67aa64utj","msl000119","infreq_resp","","","img/green_2bandit_b.png","70","img/green_2bandit_b.png","68","test","","","","","","","","","1","","","","","","","","","","",""
"null","","3621754","SARL_v67aa64utj","msl000119","fixation","","","img/fixation.png","null","","","test","","","","","","","","","","","","","","","","","","","",""
"407","","3622167","SARL_v67aa64utj","msl000119","freq","","","img/orange_2bandit_b2.png","70","","70","test","1","","","circle","square","14","14","14","1","0.7857142857142857","","","","","","","","","",""
"null","","3622565","SARL_v67aa64utj","msl000119","freq_resp","","","img/orange_2bandit_b.png","70","img/orange_2bandit_b.png","70","test","","","","","","","","","1","","","","","","","","","","",""
"null","","3622721","SARL_v67aa64utj","msl000119","fixation","","","img/fixation.png","null","","","test","","","","","","","","","","","","","","","","","","","",""
"379","","3623106","SARL_v67aa64utj","msl000119","freq","","","img/orange_2bandit_b2.png","70","","70","test","1","","","circle","square","15","15","15","1","0.8","","","","","","","","","",""
"null","","3623532","SARL_v67aa64utj","msl000119","freq_resp","","","img/orange_2bandit_b.png","70","img/orange_2bandit_b.png","70","test","","","","","","","","","1","","","","","","","","","","",""
"null","","3623687","SARL_v67aa64utj","msl000119","fixation","","","img/fixation.png","null","","","test","","","","","","","","","","","","","","","","","","","",""
"435","","3624127","SARL_v67aa64utj","msl000119","freq","","","img/orange_2bandit_b2.png","70","","70","test","1","","","circle","square","16","16","16","1","0.8125","","","","","","","","","",""
"null","","3624499","SARL_v67aa64utj","msl000119","freq_resp","","","img/orange_2bandit_b.png","70","img/orange_2bandit_b.png","70","test","","","","","","","","","1","","","","","","","","","","",""
"null","","3624654","SARL_v67aa64utj","msl000119","fixation","","","img/fixation.png","null","","","test","","","","","","","","","","","","","","","","","","","",""
"399","","3625057","SARL_v67aa64utj","msl000119","freq","","","img/orange_2bandit_b2.png","70","","70","test","1","","","circle","square","17","17","17","1","0.8235294117647058","","","","","","","","","",""
"null","","3625463","SARL_v67aa64utj","msl000119","freq_resp","","","img/orange_2bandit_b.png","70","img/orange_2bandit_b.png","70","test","","","","","","","","","1","","","","","","","","","","",""
"null","","3625618","SARL_v67aa64utj","msl000119","fixation","","","img/fixation.png","null","","","test","","","","","","","","","","","","","","","","","","","",""
"381","","3626004","SARL_v67aa64utj","msl000119","freq","","","img/orange_2bandit_b2.png","70","","70","test","1","","","circle","square","18","18","18","1","0.8333333333333334","","","","","","","","","",""
"null","","3626427","SARL_v67aa64utj","msl000119","freq_resp","","","img/orange_2bandit_b.png","70","img/orange_2bandit_b.png","70","test","","","","","","","","","1","","","","","","","","","","",""
"null","","3626581","SARL_v67aa64utj","msl000119","fixation","","","img/fixation.png","null","","","test","","","","","","","","","","","","","","","","","","","",""
"528","","3627114","SARL_v67aa64utj","msl000119","infreq","","","img/green_2bandit_b2.png","68","","68","test","1","","","circle","square","19","19","19","1","0.8421052631578947","","","","","","","","","",""
"null","","3627391","SARL_v67aa64utj","msl000119","infreq_resp","","","img/green_2bandit_b.png","68","img/green_2bandit_b.png","68","test","","","","","","","","","1","","","","","","","","","","",""
"null","","3627547","SARL_v67aa64utj","msl000119","fixation","","","img/fixation.png","null","","","test","","","","","","","","","","","","","","","","","","","",""
"475","","3628027","SARL_v67aa64utj","msl000119","freq","","","img/orange_2bandit_b2.png","70","","70","test","1","","","circle","square","20","20","20","1","0.85","","","","","","","","","",""
"null","","3628358","SARL_v67aa64utj","msl000119","freq_resp","","","img/orange_2bandit_b.png","70","img/orange_2bandit_b.png","70","test","","","","","","","","","1","","","","","","","","","","",""
"null","","3628512","SARL_v67aa64utj","msl000119","fixation","","","img/fixation.png","null","","","test","","","","","","","","","","","","","","","","","","","",""
"423","","3628940","SARL_v67aa64utj","msl000119","freq","","","img/orange_2bandit_b2.png","70","","70","test","1","","","circle","square","21","21","21","1","0.8571428571428571","","","","","","","","","",""
"null","","3629322","SARL_v67aa64utj","msl000119","freq_resp","","","img/orange_2bandit_b.png","70","img/orange_2bandit_b.png","70","test","","","","","","","","","1","","","","","","","","","","",""
"null","","3629477","SARL_v67aa64utj","msl000119","fixation","","","img/fixation.png","null","","","test","","","","","","","","","","","","","","","","","","","",""
"352","","3629833","SARL_v67aa64utj","msl000119","freq","","","img/orange_2bandit_b2.png","70","","70","test","1","","","circle","square","22","22","22","1","0.8636363636363636","","","","","","","","","",""
"null","","3630286","SARL_v67aa64utj","msl000119","freq_resp","","","img/orange_2bandit_b.png","70","img/orange_2bandit_b.png","70","test","","","","","","","","","1","","","","","","","","","","",""
"null","","3630441","SARL_v67aa64utj","msl000119","fixation","","","img/fixation.png","null","","","test","","","","","","","","","","","","","","","","","","","",""
"377","","3630824","SARL_v67aa64utj","msl000119","freq","","","img/orange_2bandit_b2.png","70","","70","test","1","","","circle","square","23","23","23","1","0.8695652173913043","","","","","","","","","",""
"null","","3631252","SARL_v67aa64utj","msl000119","freq_resp","","","img/orange_2bandit_b.png","70","img/orange_2bandit_b.png","70","test","","","","","","","","","1","","","","","","","","","","",""
"null","","3631407","SARL_v67aa64utj","msl000119","fixation","","","img/fixation.png","null","","","test","","","","","","","","","","","","","","","","","","","",""
"393","","3631807","SARL_v67aa64utj","msl000119","freq","","","img/orange_2bandit_b2.png","70","","70","test","1","","","circle","square","24","24","24","1","0.875","","","","","","","","","",""
"null","","3632219","SARL_v67aa64utj","msl000119","freq_resp","","","img/orange_2bandit_b.png","70","img/orange_2bandit_b.png","70","test","","","","","","","","","1","","","","","","","","","","",""
"null","","3632374","SARL_v67aa64utj","msl000119","fixation","","","img/fixation.png","null","","","test","","","","","","","","","","","","","","","","","","","",""
"448","","3632826","SARL_v67aa64utj","msl000119","freq","","","img/orange_2bandit_b2.png","70","","70","test","1","","","circle","square","25","25","25","1","0.88","","","","","","","","","",""
"null","","3633183","SARL_v67aa64utj","msl000119","freq_resp","","","img/orange_2bandit_b.png","70","img/orange_2bandit_b.png","70","test","","","","","","","","","1","","","","","","","","","","",""
"null","","3633338","SARL_v67aa64utj","msl000119","fixation","","","img/fixation.png","null","","","test","","","","","","","","","","","","","","","","","","","",""
"null","","3634844","SARL_v67aa64utj","msl000119","rl","","","img/black_2bandit_b2.png","null","","0","test","","","0","circle","square","26","","0","1","","null","0.8","0.2","0.09995043212852361","0.8","0.2","0","too slow","1","0"
"null","","3635601","SARL_v67aa64utj","msl000119","feedback","","","img/boo.png","null","","na","test","","","","","","","","","1","","null","0.8","0.2","","","","0","","1",""
"null","","3636407","SARL_v67aa64utj","msl000119","freq","","","img/orange_2bandit_b2.png","null","","70","test","0","","","circle","square","27","26","1","2","0.8461538461538461","","","","","","","","","",""
"null","","3636562","SARL_v67aa64utj","msl000119","fixation","","","img/fixation.png","null","","","test","","","","","","","","","","","","","","","","","","","",""
"559","","3637126","SARL_v67aa64utj","msl000119","freq","","","img/orange_2bandit_b2.png","70","","70","test","1","","","circle","square","28","27","2","2","0.8518518518518519","","","","","","","","","",""
"null","","3637371","SARL_v67aa64utj","msl000119","freq_resp","","","img/orange_2bandit_b.png","70","img/orange_2bandit_b.png","70","test","","","","","","","","","2","","","","","","","","","","",""
"null","","3637527","SARL_v67aa64utj","msl000119","fixation","","","img/fixation.png","null","","","test","","","","","","","","","","","","","","","","","","","",""
"390","","3637922","SARL_v67aa64utj","msl000119","freq","","","img/orange_2bandit_b2.png","70","","70","test","1","","","circle","square","29","28","3","2","0.8571428571428571","","","","","","","","","",""
"null","","3638337","SARL_v67aa64utj","msl000119","freq_resp","","","img/orange_2bandit_b.png","70","img/orange_2bandit_b.png","70","test","","","","","","","","","2","","","","","","","","","","",""
"null","","3638492","SARL_v67aa64utj","msl000119","fixation","","","img/fixation.png","null","","","test","","","","","","","","","","","","","","","","","","","",""
"389","","3638884","SARL_v67aa64utj","msl000119","freq","","","img/orange_2bandit_b2.png","70","","70","test","1","","","circle","square","30","29","4","2","0.8620689655172413","","","","","","","","","",""
"null","","3639300","SARL_v67aa64utj","msl000119","freq_resp","","","img/orange_2bandit_b.png","70","img/orange_2bandit_b.png","70","test","","","","","","","","","2","","","","","","","","","","",""
"null","","3639455","SARL_v67aa64utj","msl000119","fixation","","","img/fixation.png","null","","","test","","","","","","","","","","","","","","","","","","","",""
"327","","3639789","SARL_v67aa64utj","msl000119","freq","","","img/orange_2bandit_b2.png","70","","70","test","1","","","circle","square","31","30","5","2","0.8666666666666667","","","","","","","","","",""
"null","","3640267","SARL_v67aa64utj","msl000119","freq_resp","","","img/orange_2bandit_b.png","70","img/orange_2bandit_b.png","70","test","","","","","","","","","2","","","","","","","","","","",""
"null","","3640422","SARL_v67aa64utj","msl000119","fixation","","","img/fixation.png","null","","","test","","","","","","","","","","","","","","","","","","","",""
"391","","3640817","SARL_v67aa64utj","msl000119","freq","","","img/orange_2bandit_b2.png","70","","70","test","1","","","circle","square","32","31","6","2","0.8709677419354839","","","","","","","","","",""
"null","","3641231","SARL_v67aa64utj","msl000119","freq_resp","","","img/orange_2bandit_b.png","70","img/orange_2bandit_b.png","70","test","","","","","","","","","2","","","","","","","","","","",""
"null","","3641385","SARL_v67aa64utj","msl000119","fixation","","","img/fixation.png","null","","","test","","","","","","","","","","","","","","","","","","","",""
"null","","3642190","SARL_v67aa64utj","msl000119","infreq","","","img/green_2bandit_b2.png","null","","68","test","0","","","circle","square","33","32","7","2","0.84375","","","","","","","","","",""
"null","","3642345","SARL_v67aa64utj","msl000119","fixation","","","img/fixation.png","null","","","test","","","","","","","","","","","","","","","","","","","",""
"785","","3643135","SARL_v67aa64utj","msl000119","freq","","","img/orange_2bandit_b2.png","70","","70","test","1","","","circle","square","34","33","8","2","0.8484848484848485","","","","","","","","","",""
"null","","3643155","SARL_v67aa64utj","msl000119","freq_resp","","","img/orange_2bandit_b.png","70","img/orange_2bandit_b.png","70","test","","","","","","","","","2","","","","","","","","","","",""
"null","","3643310","SARL_v67aa64utj","msl000119","fixation","","","img/fixation.png","null","","","test","","","","","","","","","","","","","","","","","","","",""
"672","","3643987","SARL_v67aa64utj","msl000119","freq","","","img/orange_2bandit_b2.png","70","","70","test","1","","","circle","square","35","34","9","2","0.8529411764705882","","","","","","","","","",""
"null","","3644120","SARL_v67aa64utj","msl000119","freq_resp","","","img/orange_2bandit_b.png","70","img/orange_2bandit_b.png","70","test","","","","","","","","","2","","","","","","","","","","",""
"null","","3644276","SARL_v67aa64utj","msl000119","fixation","","","img/fixation.png","null","","","test","","","","","","","","","","","","","","","","","","","",""
"459","","3644741","SARL_v67aa64utj","msl000119","freq","","","img/orange_2bandit_b2.png","70","","70","test","1","","","circle","square","36","35","10","2","0.8571428571428571","","","","","","","","","",""
"null","","3645087","SARL_v67aa64utj","msl000119","freq_resp","","","img/orange_2bandit_b.png","70","img/orange_2bandit_b.png","70","test","","","","","","","","","2","","","","","","","","","","",""
"null","","3645243","SARL_v67aa64utj","msl000119","fixation","","","img/fixation.png","null","","","test","","","","","","","","","","","","","","","","","","","",""
"407","","3645654","SARL_v67aa64utj","msl000119","freq","","","img/orange_2bandit_b2.png","70","","70","test","1","","","circle","square","37","36","11","2","0.8611111111111112","","","","","","","","","",""
"null","","3646054","SARL_v67aa64utj","msl000119","freq_resp","","","img/orange_2bandit_b.png","70","img/orange_2bandit_b.png","70","test","","","","","","","","","2","","","","","","","","","","",""
"null","","3646209","SARL_v67aa64utj","msl000119","fixation","","","img/fixation.png","null","","","test","","","","","","","","","","","","","","","","","","","",""
"381","","3646595","SARL_v67aa64utj","msl000119","freq","","","img/orange_2bandit_b2.png","70","","70","test","1","","","circle","square","38","37","12","2","0.8648648648648649","","","","","","","","","",""
"null","","3647020","SARL_v67aa64utj","msl000119","freq_resp","","","img/orange_2bandit_b.png","70","img/orange_2bandit_b.png","70","test","","","","","","","","","2","","","","","","","","","","",""
"null","","3647175","SARL_v67aa64utj","msl000119","fixation","","","img/fixation.png","null","","","test","","","","","","","","","","","","","","","","","","","",""
"342","","3647522","SARL_v67aa64utj","msl000119","freq","","","img/orange_2bandit_b2.png","70","","70","test","1","","","circle","square","39","38","13","2","0.868421052631579","","","","","","","","","",""
"null","","3647986","SARL_v67aa64utj","msl000119","freq_resp","","","img/orange_2bandit_b.png","70","img/orange_2bandit_b.png","70","test","","","","","","","","","2","","","","","","","","","","",""
"null","","3648141","SARL_v67aa64utj","msl000119","fixation","","","img/fixation.png","null","","","test","","","","","","","","","","","","","","","","","","","",""
"625","","3648769","SARL_v67aa64utj","msl000119","freq","","","img/orange_2bandit_b2.png","70","","70","test","1","","","circle","square","40","39","14","2","0.8717948717948718","","","","","","","","","",""
"null","","3648951","SARL_v67aa64utj","msl000119","freq_resp","","","img/orange_2bandit_b.png","70","img/orange_2bandit_b.png","70","test","","","","","","","","","2","","","","","","","","","","",""
"null","","3649106","SARL_v67aa64utj","msl000119","fixation","","","img/fixation.png","null","","","test","","","","","","","","","","","","","","","","","","","",""
"744","","3649854","SARL_v67aa64utj","msl000119","freq","","","img/orange_2bandit_b2.png","70","","70","test","1","","","circle","square","41","40","15","2","0.875","","","","","","","","","",""
"null","","3649915","SARL_v67aa64utj","msl000119","freq_resp","","","img/orange_2bandit_b.png","70","img/orange_2bandit_b.png","70","test","","","","","","","","","2","","","","","","","","","","",""
"null","","3650071","SARL_v67aa64utj","msl000119","fixation","","","img/fixation.png","null","","","test","","","","","","","","","","","","","","","","","","","",""
"471","","3650546","SARL_v67aa64utj","msl000119","infreq","","","img/green_2bandit_b2.png","68","","68","test","1","","","circle","square","42","41","16","2","0.8780487804878049","","","","","","","","","",""
"null","","3650880","SARL_v67aa64utj","msl000119","infreq_resp","","","img/green_2bandit_b.png","68","img/green_2bandit_b.png","68","test","","","","","","","","","2","","","","","","","","","","",""
"null","","3651036","SARL_v67aa64utj","msl000119","fixation","","","img/fixation.png","null","","","test","","","","","","","","","","","","","","","","","","","",""
"536","","3651576","SARL_v67aa64utj","msl000119","freq","","","img/orange_2bandit_b2.png","70","","70","test","1","","","circle","square","43","42","17","2","0.8809523809523809","","","","","","","","","",""
"null","","3651846","SARL_v67aa64utj","msl000119","freq_resp","","","img/orange_2bandit_b.png","70","img/orange_2bandit_b.png","70","test","","","","","","","","","2","","","","","","","","","","",""
"null","","3652002","SARL_v67aa64utj","msl000119","fixation","","","img/fixation.png","null","","","test","","","","","","","","","","","","","","","","","","","",""
"412","","3652417","SARL_v67aa64utj","msl000119","freq","","","img/orange_2bandit_b2.png","70","","70","test","1","","","circle","square","44","43","18","2","0.8837209302325582","","","","","","","","","",""
"null","","3652811","SARL_v67aa64utj","msl000119","freq_resp","","","img/orange_2bandit_b.png","70","img/orange_2bandit_b.png","70","test","","","","","","","","","2","","","","","","","","","","",""
"null","","3652967","SARL_v67aa64utj","msl000119","fixation","","","img/fixation.png","null","","","test","","","","","","","","","","","","","","","","","","","",""
"370","","3653341","SARL_v67aa64utj","msl000119","freq","","","img/orange_2bandit_b2.png","70","","70","test","1","","","circle","square","45","44","19","2","0.8863636363636364","","","","","","","","","",""
"null","","3653777","SARL_v67aa64utj","msl000119","freq_resp","","","img/orange_2bandit_b.png","70","img/orange_2bandit_b.png","70","test","","","","","","","","","2","","","","","","","","","","",""
"null","","3653932","SARL_v67aa64utj","msl000119","fixation","","","img/fixation.png","null","","","test","","","","","","","","","","","","","","","","","","","",""
"458","","3654396","SARL_v67aa64utj","msl000119","infreq","","","img/green_2bandit_b2.png","68","","68","test","1","","","circle","square","46","45","20","2","0.8888888888888888","","","","","","","","","",""
"null","","3654743","SARL_v67aa64utj","msl000119","infreq_resp","","","img/green_2bandit_b.png","68","img/green_2bandit_b.png","68","test","","","","","","","","","2","","","","","","","","","","",""
"null","","3654898","SARL_v67aa64utj","msl000119","fixation","","","img/fixation.png","null","","","test","","","","","","","","","","","","","","","","","","","",""
"526","","3655429","SARL_v67aa64utj","msl000119","freq","","","img/orange_2bandit_b2.png","70","","70","test","1","","","circle","square","47","46","21","2","0.8913043478260869","","","","","","","","","",""
"null","","3655708","SARL_v67aa64utj","msl000119","freq_resp","","","img/orange_2bandit_b.png","70","img/orange_2bandit_b.png","70","test","","","","","","","","","2","","","","","","","","","","",""
"null","","3655863","SARL_v67aa64utj","msl000119","fixation","","","img/fixation.png","null","","","test","","","","","","","","","","","","","","","","","","","",""
"526","","3656392","SARL_v67aa64utj","msl000119","infreq","","","img/green_2bandit_b2.png","68","","68","test","1","","","circle","square","48","47","22","2","0.8936170212765957","","","","","","","","","",""
"null","","3656673","SARL_v67aa64utj","msl000119","infreq_resp","","","img/green_2bandit_b.png","68","img/green_2bandit_b.png","68","test","","","","","","","","","2","","","","","","","","","","",""
"null","","3656828","SARL_v67aa64utj","msl000119","fixation","","","img/fixation.png","null","","","test","","","","","","","","","","","","","","","","","","","",""
"563","","3657396","SARL_v67aa64utj","msl000119","freq","","","img/orange_2bandit_b2.png","70","","70","test","1","","","circle","square","49","48","23","2","0.8958333333333334","","","","","","","","","",""
"null","","3657638","SARL_v67aa64utj","msl000119","freq_resp","","","img/orange_2bandit_b.png","70","img/orange_2bandit_b.png","70","test","","","","","","","","","2","","","","","","","","","","",""
"null","","3657794","SARL_v67aa64utj","msl000119","fixation","","","img/fixation.png","null","","","test","","","","","","","","","","","","","","","","","","","",""
"627","","3658426","SARL_v67aa64utj","msl000119","freq","","","img/orange_2bandit_b2.png","70","","70","test","1","","","circle","square","50","49","24","2","0.8979591836734694","","","","","","","","","",""
"null","","3658605","SARL_v67aa64utj","msl000119","freq_resp","","","img/orange_2bandit_b.png","70","img/orange_2bandit_b.png","70","test","","","","","","","","","2","","","","","","","","","","",""
"null","","3658760","SARL_v67aa64utj","msl000119","fixation","","","img/fixation.png","null","","","test","","","","","","","","","","","","","","","","","","","",""
"484","","3659247","SARL_v67aa64utj","msl000119","freq","","","img/orange_2bandit_b2.png","70","","70","test","1","","","circle","square","51","50","25","2","0.9","","","","","","","","","",""
"null","","3659569","SARL_v67aa64utj","msl000119","freq_resp","","","img/orange_2bandit_b.png","70","img/orange_2bandit_b.png","70","test","","","","","","","","","2","","","","","","","","","","",""
"null","","3659725","SARL_v67aa64utj","msl000119","fixation","","","img/fixation.png","null","","","test","","","","","","","","","","","","","","","","","","","",""
"626","","3660357","SARL_v67aa64utj","msl000119","rl","","","img/black_2bandit_b2.png","75","","0","test","","","0","circle","square","52","","0","2","","75","0.8","0.2","0.5998317678259444","0.8","0.2","0.2","square","2","0"
"null","","3661113","SARL_v67aa64utj","msl000119","feedback","","","img/boo_R_b.png","null","","na","test","","","","","","","","","2","","75","0.8","0.2","","","","0.2","","2",""
"null","","3661918","SARL_v67aa64utj","msl000119","freq","","","img/orange_2bandit_b2.png","null","","70","test","0","","","circle","square","53","51","1","3","0.8823529411764706","","","","","","","","","",""
"null","","3662075","SARL_v67aa64utj","msl000119","fixation","","","img/fixation.png","null","","","test","","","","","","","","","","","","","","","","","","","",""
"766","","3662846","SARL_v67aa64utj","msl000119","infreq","","","img/green_2bandit_b2.png","70","","68","test","0","","","circle","square","54","52","2","3","0.8653846153846154","","","","","","","","","",""
"null","","3662885","SARL_v67aa64utj","msl000119","infreq_resp","","","img/green_2bandit_b.png","70","img/green_2bandit_b.png","68","test","","","","","","","","","3","","","","","","","","","","",""
"null","","3663040","SARL_v67aa64utj","msl000119","fixation","","","img/fixation.png","null","","","test","","","","","","","","","","","","","","","","","","","",""
"500","","3663545","SARL_v67aa64utj","msl000119","freq","","","img/orange_2bandit_b2.png","68","","70","test","0","","","circle","square","55","53","3","3","0.8490566037735849","","","","","","","","","",""
"null","","3663850","SARL_v67aa64utj","msl000119","freq_resp","","","img/orange_2bandit_b.png","68","img/orange_2bandit_b.png","70","test","","","","","","","","","3","","","","","","","","","","",""
"null","","3664006","SARL_v67aa64utj","msl000119","fixation","","","img/fixation.png","null","","","test","","","","","","","","","","","","","","","","","","","",""
"704","","3664713","SARL_v67aa64utj","msl000119","freq","","","img/orange_2bandit_b2.png","70","","70","test","1","","","circle","square","56","54","4","3","0.8518518518518519","","","","","","","","","",""
"null","","3664815","SARL_v67aa64utj","msl000119","freq_resp","","","img/orange_2bandit_b.png","70","img/orange_2bandit_b.png","70","test","","","","","","","","","3","","","","","","","","","","",""
"null","","3664970","SARL_v67aa64utj","msl000119","fixation","","","img/fixation.png","null","","","test","","","","","","","","","","","","","","","","","","","",""
"560","","3665535","SARL_v67aa64utj","msl000119","freq","","","img/orange_2bandit_b2.png","70","","70","test","1","","","circle","square","57","55","5","3","0.8545454545454545","","","","","","","","","",""
"null","","3665780","SARL_v67aa64utj","msl000119","freq_resp","","","img/orange_2bandit_b.png","70","img/orange_2bandit_b.png","70","test","","","","","","","","","3","","","","","","","","","","",""
"null","","3665936","SARL_v67aa64utj","msl000119","fixation","","","img/fixation.png","null","","","test","","","","","","","","","","","","","","","","","","","",""
"654","","3666595","SARL_v67aa64utj","msl000119","freq","","","img/orange_2bandit_b2.png","70","","70","test","1","","","circle","square","58","56","6","3","0.8571428571428571","","","","","","","","","",""
"null","","3666747","SARL_v67aa64utj","msl000119","freq_resp","","","img/orange_2bandit_b.png","70","img/orange_2bandit_b.png","70","test","","","","","","","","","3","","","","","","","","","","",""
"null","","3666901","SARL_v67aa64utj","msl000119","fixation","","","img/fixation.png","null","","","test","","","","","","","","","","","","","","","","","","","",""
"587","","3667492","SARL_v67aa64utj","msl000119","freq","","","img/orange_2bandit_b2.png","70","","70","test","1","","","circle","square","59","57","7","3","0.8596491228070176","","","","","","","","","",""
"null","","3667710","SARL_v67aa64utj","msl000119","freq_resp","","","img/orange_2bandit_b.png","70","img/orange_2bandit_b.png","70","test","","","","","","","","","3","","","","","","","","","","",""
"null","","3667865","SARL_v67aa64utj","msl000119","fixation","","","img/fixation.png","null","","","test","","","","","","","","","","","","","","","","","","","",""
"562","","3668432","SARL_v67aa64utj","msl000119","freq","","","img/orange_2bandit_b2.png","70","","70","test","1","","","circle","square","60","58","8","3","0.8620689655172413","","","","","","","","","",""
"null","","3668675","SARL_v67aa64utj","msl000119","freq_resp","","","img/orange_2bandit_b.png","70","img/orange_2bandit_b.png","70","test","","","","","","","","","3","","","","","","","","","","",""
"null","","3668831","SARL_v67aa64utj","msl000119","fixation","","","img/fixation.png","null","","","test","","","","","","","","","","","","","","","","","","","",""
"623","","3669459","SARL_v67aa64utj","msl000119","freq","","","img/orange_2bandit_b2.png","70","","70","test","1","","","circle","square","61","59","9","3","0.864406779661017","","","","","","","","","",""
"null","","3669642","SARL_v67aa64utj","msl000119","freq_resp","","","img/orange_2bandit_b.png","70","img/orange_2bandit_b.png","70","test","","","","","","","","","3","","","","","","","","","","",""
"null","","3669797","SARL_v67aa64utj","msl000119","fixation","","","img/fixation.png","null","","","test","","","","","","","","","","","","","","","","","","","",""
"531","","3670333","SARL_v67aa64utj","msl000119","freq","","","img/orange_2bandit_b2.png","70","","70","test","1","","","circle","square","62","60","10","3","0.8666666666666667","","","","","","","","","",""
"null","","3670607","SARL_v67aa64utj","msl000119","freq_resp","","","img/orange_2bandit_b.png","70","img/orange_2bandit_b.png","70","test","","","","","","","","","3","","","","","","","","","","",""
"null","","3670763","SARL_v67aa64utj","msl000119","fixation","","","img/fixation.png","null","","","test","","","","","","","","","","","","","","","","","","","",""
"443","","3671210","SARL_v67aa64utj","msl000119","freq","","","img/orange_2bandit_b2.png","70","","70","test","1","","","circle","square","63","61","11","3","0.8688524590163934","","","","","","","","","",""
"null","","3671573","SARL_v67aa64utj","msl000119","freq_resp","","","img/orange_2bandit_b.png","70","img/orange_2bandit_b.png","70","test","","","","","","","","","3","","","","","","","","","","",""
"null","","3671727","SARL_v67aa64utj","msl000119","fixation","","","img/fixation.png","null","","","test","","","","","","","","","","","","","","","","","","","",""
"387","","3672120","SARL_v67aa64utj","msl000119","freq","","","img/orange_2bandit_b2.png","70","","70","test","1","","","circle","square","64","62","12","3","0.8709677419354839","","","","","","","","","",""
"null","","3672538","SARL_v67aa64utj","msl000119","freq_resp","","","img/orange_2bandit_b.png","70","img/orange_2bandit_b.png","70","test","","","","","","","","","3","","","","","","","","","","",""
"null","","3672694","SARL_v67aa64utj","msl000119","fixation","","","img/fixation.png","null","","","test","","","","","","","","","","","","","","","","","","","",""
"485","","3673183","SARL_v67aa64utj","msl000119","infreq","","","img/green_2bandit_b2.png","68","","68","test","1","","","circle","square","65","63","13","3","0.873015873015873","","","","","","","","","",""
"null","","3673502","SARL_v67aa64utj","msl000119","infreq_resp","","","img/green_2bandit_b.png","68","img/green_2bandit_b.png","68","test","","","","","","","","","3","","","","","","","","","","",""
"null","","3673657","SARL_v67aa64utj","msl000119","fixation","","","img/fixation.png","null","","","test","","","","","","","","","","","","","","","","","","","",""
"562","","3674226","SARL_v67aa64utj","msl000119","freq","","","img/orange_2bandit_b2.png","70","","70","test","1","","","circle","square","66","64","14","3","0.875","","","","","","","","","",""
"null","","3674470","SARL_v67aa64utj","msl000119","freq_resp","","","img/orange_2bandit_b.png","70","img/orange_2bandit_b.png","70","test","","","","","","","","","3","","","","","","","","","","",""
"null","","3674625","SARL_v67aa64utj","msl000119","fixation","","","img/fixation.png","null","","","test","","","","","","","","","","","","","","","","","","","",""
"442","","3675070","SARL_v67aa64utj","msl000119","freq","","","img/orange_2bandit_b2.png","70","","70","test","1","","","circle","square","67","65","15","3","0.8769230769230769","","","","","","","","","",""
"null","","3675434","SARL_v67aa64utj","msl000119","freq_resp","","","img/orange_2bandit_b.png","70","img/orange_2bandit_b.png","70","test","","","","","","","","","3","","","","","","","","","","",""
"null","","3675589","SARL_v67aa64utj","msl000119","fixation","","","img/fixation.png","null","","","test","","","","","","","","","","","","","","","","","","","",""
"362","","3675957","SARL_v67aa64utj","msl000119","freq","","","img/orange_2bandit_b2.png","70","","70","test","1","","","circle","square","68","66","16","3","0.8787878787878788","","","","","","","","","",""
"null","","3676401","SARL_v67aa64utj","msl000119","freq_resp","","","img/orange_2bandit_b.png","70","img/orange_2bandit_b.png","70","test","","","","","","","","","3","","","","","","","","","","",""
"null","","3676557","SARL_v67aa64utj","msl000119","fixation","","","img/fixation.png","null","","","test","","","","","","","","","","","","","","","","","","","",""
"430","","3676991","SARL_v67aa64utj","msl000119","freq","","","img/orange_2bandit_b2.png","70","","70","test","1","","","circle","square","69","67","17","3","0.8805970149253731","","","","","","","","","",""
"null","","3677367","SARL_v67aa64utj","msl000119","freq_resp","","","img/orange_2bandit_b.png","70","img/orange_2bandit_b.png","70","test","","","","","","","","","3","","","","","","","","","","",""
"null","","3677522","SARL_v67aa64utj","msl000119","fixation","","","img/fixation.png","null","","","test","","","","","","","","","","","","","","","","","","","",""
"443","","3677971","SARL_v67aa64utj","msl000119","freq","","","img/orange_2bandit_b2.png","70","","70","test","1","","","circle","square","70","68","18","3","0.8823529411764706","","","","","","","","","",""
"null","","3678333","SARL_v67aa64utj","msl000119","freq_resp","","","img/orange_2bandit_b.png","70","img/orange_2bandit_b.png","70","test","","","","","","","","","3","","","","","","","","","","",""
"null","","3678488","SARL_v67aa64utj","msl000119","fixation","","","img/fixation.png","null","","","test","","","","","","","","","","","","","","","","","","","",""
"490","","3678983","SARL_v67aa64utj","msl000119","infreq","","","img/green_2bandit_b2.png","68","","68","test","1","","","circle","square","71","69","19","3","0.8840579710144928","","","","","","","","","",""
"null","","3679299","SARL_v67aa64utj","msl000119","infreq_resp","","","img/green_2bandit_b.png","68","img/green_2bandit_b.png","68","test","","","","","","","","","3","","","","","","","","","","",""
"null","","3679454","SARL_v67aa64utj","msl000119","fixation","","","img/fixation.png","null","","","test","","","","","","","","","","","","","","","","","","","",""
"545","","3680004","SARL_v67aa64utj","msl000119","freq","","","img/orange_2bandit_b2.png","70","","70","test","1","","","circle","square","72","70","20","3","0.8857142857142857","","","","","","","","","",""
"null","","3680264","SARL_v67aa64utj","msl000119","freq_resp","","","img/orange_2bandit_b.png","70","img/orange_2bandit_b.png","70","test","","","","","","","","","3","","","","","","","","","","",""
"null","","3680420","SARL_v67aa64utj","msl000119","fixation","","","img/fixation.png","null","","","test","","","","","","","","","","","","","","","","","","","",""
"480","","3680905","SARL_v67aa64utj","msl000119","freq","","","img/orange_2bandit_b2.png","70","","70","test","1","","","circle","square","73","71","21","3","0.8873239436619719","","","","","","","","","",""
"null","","3681230","SARL_v67aa64utj","msl000119","freq_resp","","","img/orange_2bandit_b.png","70","img/orange_2bandit_b.png","70","test","","","","","","","","","3","","","","","","","","","","",""
"null","","3681386","SARL_v67aa64utj","msl000119","fixation","","","img/fixation.png","null","","","test","","","","","","","","","","","","","","","","","","","",""
"413","","3681803","SARL_v67aa64utj","msl000119","freq","","","img/orange_2bandit_b2.png","70","","70","test","1","","","circle","square","74","72","22","3","0.8888888888888888","","","","","","","","","",""
"null","","3682195","SARL_v67aa64utj","msl000119","freq_resp","","","img/orange_2bandit_b.png","70","img/orange_2bandit_b.png","70","test","","","","","","","","","3","","","","","","","","","","",""
"null","","3682350","SARL_v67aa64utj","msl000119","fixation","","","img/fixation.png","null","","","test","","","","","","","","","","","","","","","","","","","",""
"341","","3682697","SARL_v67aa64utj","msl000119","freq","","","img/orange_2bandit_b2.png","70","","70","test","1","","","circle","square","75","73","23","3","0.8904109589041096","","","","","","","","","",""
"null","","3683161","SARL_v67aa64utj","msl000119","freq_resp","","","img/orange_2bandit_b.png","70","img/orange_2bandit_b.png","70","test","","","","","","","","","3","","","","","","","","","","",""
"null","","3683317","SARL_v67aa64utj","msl000119","fixation","","","img/fixation.png","null","","","test","","","","","","","","","","","","","","","","","","","",""
"234","","3683554","SARL_v67aa64utj","msl000119","freq","","","img/orange_2bandit_b2.png","70","","70","test","1","","","circle","square","76","74","24","3","0.8918918918918919","","","","","","","","","",""
"null","","3684126","SARL_v67aa64utj","msl000119","freq_resp","","","img/orange_2bandit_b.png","70","img/orange_2bandit_b.png","70","test","","","","","","","","","3","","","","","","","","","","",""
"null","","3684281","SARL_v67aa64utj","msl000119","fixation","","","img/fixation.png","null","","","test","","","","","","","","","","","","","","","","","","","",""
"281","","3684569","SARL_v67aa64utj","msl000119","freq","","","img/orange_2bandit_b2.png","70","","70","test","1","","","circle","square","77","75","25","3","0.8933333333333333","","","","","","","","","",""
"null","","3685094","SARL_v67aa64utj","msl000119","freq_resp","","","img/orange_2bandit_b.png","70","img/orange_2bandit_b.png","70","test","","","","","","","","","3","","","","","","","","","","",""
"null","","3685248","SARL_v67aa64utj","msl000119","fixation","","","img/fixation.png","null","","","test","","","","","","","","","","","","","","","","","","","",""
"305","","3685557","SARL_v67aa64utj","msl000119","freq","","","img/orange_2bandit_b2.png","70","","70","test","1","","","circle","square","78","76","26","3","0.8947368421052632","","","","","","","","","",""
"null","","3686057","SARL_v67aa64utj","msl000119","freq_resp","","","img/orange_2bandit_b.png","70","img/orange_2bandit_b.png","70","test","","","","","","","","","3","","","","","","","","","","",""
"null","","3686213","SARL_v67aa64utj","msl000119","fixation","","","img/fixation.png","null","","","test","","","","","","","","","","","","","","","","","","","",""
"343","","3686560","SARL_v67aa64utj","msl000119","freq","","","img/orange_2bandit_b2.png","70","","70","test","1","","","circle","square","79","77","27","3","0.8961038961038961","","","","","","","","","",""
"null","","3687022","SARL_v67aa64utj","msl000119","freq_resp","","","img/orange_2bandit_b.png","70","img/orange_2bandit_b.png","70","test","","","","","","","","","3","","","","","","","","","","",""
"null","","3687177","SARL_v67aa64utj","msl000119","fixation","","","img/fixation.png","null","","","test","","","","","","","","","","","","","","","","","","","",""
"605","","3687785","SARL_v67aa64utj","msl000119","rl","","","img/black_2bandit_b2.png","75","","0","test","","","0","circle","square","80","","0","3","","75","0.8","0.2","0.4593216735354948","0.8","0.2","0.2","square","3","0"
"null","","3688541","SARL_v67aa64utj","msl000119","feedback","","","img/boo_R_b.png","null","","na","test","","","","","","","","","3","","75","0.8","0.2","","","","0.2","","3",""
"685","","3689231","SARL_v67aa64utj","msl000119","freq","","","img/orange_2bandit_b2.png","68","","70","test","0","","","circle","square","81","78","1","4","0.8846153846153846","","","","","","","","","",""
"null","","3689352","SARL_v67aa64utj","msl000119","freq_resp","","","img/orange_2bandit_b.png","68","img/orange_2bandit_b.png","70","test","","","","","","","","","4","","","","","","","","","","",""
"null","","3689507","SARL_v67aa64utj","msl000119","fixation","","","img/fixation.png","null","","","test","","","","","","","","","","","","","","","","","","","",""
"null","","3690313","SARL_v67aa64utj","msl000119","infreq","","","img/green_2bandit_b2.png","null","","68","test","0","","","circle","square","82","79","2","4","0.8734177215189873","","","","","","","","","",""
"null","","3690469","SARL_v67aa64utj","msl000119","fixation","","","img/fixation.png","null","","","test","","","","","","","","","","","","","","","","","","","",""
"null","","3691275","SARL_v67aa64utj","msl000119","freq","","","img/orange_2bandit_b2.png","null","","70","test","0","","","circle","square","83","80","3","4","0.8625","","","","","","","","","",""
"null","","3691430","SARL_v67aa64utj","msl000119","fixation","","","img/fixation.png","null","","","test","","","","","","","","","","","","","","","","","","","",""
"776","","3692211","SARL_v67aa64utj","msl000119","freq","","","img/orange_2bandit_b2.png","70","","70","test","1","","","circle","square","84","81","4","4","0.8641975308641975","","","","","","","","","",""
"null","","3692240","SARL_v67aa64utj","msl000119","freq_resp","","","img/orange_2bandit_b.png","70","img/orange_2bandit_b.png","70","test","","","","","","","","","4","","","","","","","","","","",""
"null","","3692395","SARL_v67aa64utj","msl000119","fixation","","","img/fixation.png","null","","","test","","","","","","","","","","","","","","","","","","","",""
"753","","3693154","SARL_v67aa64utj","msl000119","freq","","","img/orange_2bandit_b2.png","70","","70","test","1","","","circle","square","85","82","5","4","0.8658536585365854","","","","","","","","","",""
"null","","3693206","SARL_v67aa64utj","msl000119","freq_resp","","","img/orange_2bandit_b.png","70","img/orange_2bandit_b.png","70","test","","","","","","","","","4","","","","","","","","","","",""
"null","","3693362","SARL_v67aa64utj","msl000119","fixation","","","img/fixation.png","null","","","test","","","","","","","","","","","","","","","","","","","",""
"791","","3694158","SARL_v67aa64utj","msl000119","freq","","","img/orange_2bandit_b2.png","70","","70","test","1","","","circle","square","86","83","6","4","0.8674698795180723","","","","","","","","","",""
"null","","3694172","SARL_v67aa64utj","msl000119","freq_resp","","","img/orange_2bandit_b.png","70","img/orange_2bandit_b.png","70","test","","","","","","","","","4","","","","","","","","","","",""
"null","","3694328","SARL_v67aa64utj","msl000119","fixation","","","img/fixation.png","null","","","test","","","","","","","","","","","","","","","","","","","",""
"698","","3695032","SARL_v67aa64utj","msl000119","freq","","","img/orange_2bandit_b2.png","70","","70","test","1","","","circle","square","87","84","7","4","0.8690476190476191","","","","","","","","","",""
"null","","3695140","SARL_v67aa64utj","msl000119","freq_resp","","","img/orange_2bandit_b.png","70","img/orange_2bandit_b.png","70","test","","","","","","","","","4","","","","","","","","","","",""
"null","","3695296","SARL_v67aa64utj","msl000119","fixation","","","img/fixation.png","null","","","test","","","","","","","","","","","","","","","","","","","",""
"null","","3696101","SARL_v67aa64utj","msl000119","freq","","","img/orange_2bandit_b2.png","null","","70","test","0","","","circle","square","88","85","8","4","0.8588235294117647","","","","","","","","","",""
"null","","3696257","SARL_v67aa64utj","msl000119","fixation","","","img/fixation.png","null","","","test","","","","","","","","","","","","","","","","","","","",""
"null","","3697062","SARL_v67aa64utj","msl000119","freq","","","img/orange_2bandit_b2.png","null","","70","test","0","","","circle","square","89","86","9","4","0.8488372093023255","","","","","","","","","",""
"null","","3697218","SARL_v67aa64utj","msl000119","fixation","","","img/fixation.png","null","","","test","","","","","","","","","","","","","","","","","","","",""
"null","","3698024","SARL_v67aa64utj","msl000119","freq","","","img/orange_2bandit_b2.png","null","","70","test","0","","","circle","square","90","87","10","4","0.8390804597701149","","","","","","","","","",""
"null","","3698179","SARL_v67aa64utj","msl000119","fixation","","","img/fixation.png","null","","","test","","","","","","","","","","","","","","","","","","","",""
"null","","3698983","SARL_v67aa64utj","msl000119","freq","","","img/orange_2bandit_b2.png","null","","70","test","0","","","circle","square","91","88","11","4","0.8295454545454546","","","","","","","","","",""
"null","","3699139","SARL_v67aa64utj","msl000119","fixation","","","img/fixation.png","null","","","test","","","","","","","","","","","","","","","","","","","",""
"30","","3699175","SARL_v67aa64utj","msl000119","freq","","","img/orange_2bandit_b2.png","70","","70","test","1","","","circle","square","92","89","12","4","0.8314606741573034","","","","","","","","","",""
"null","","3699951","SARL_v67aa64utj","msl000119","freq_resp","","","img/orange_2bandit_b.png","70","img/orange_2bandit_b.png","70","test","","","","","","","","","4","","","","","","","","","","",""
"null","","3700106","SARL_v67aa64utj","msl000119","fixation","","","img/fixation.png","null","","","test","","","","","","","","","","","","","","","","","","","",""
"32","","3700143","SARL_v67aa64utj","msl000119","freq","","","img/orange_2bandit_b2.png","70","","70","test","1","","","circle","square","93","90","13","4","0.8333333333333334","","","","","","","","","",""
"null","","3700916","SARL_v67aa64utj","msl000119","freq_resp","","","img/orange_2bandit_b.png","70","img/orange_2bandit_b.png","70","test","","","","","","","","","4","","","","","","","","","","",""
"null","","3701072","SARL_v67aa64utj","msl000119","fixation","","","img/fixation.png","null","","","test","","","","","","","","","","","","","","","","","","","",""
"null","","3701877","SARL_v67aa64utj","msl000119","freq","","","img/orange_2bandit_b2.png","null","","70","test","0","","","circle","square","94","91","14","4","0.8241758241758241","","","","","","","","","",""
"null","","3702033","SARL_v67aa64utj","msl000119","fixation","","","img/fixation.png","null","","","test","","","","","","","","","","","","","","","","","","","",""
"null","","3702838","SARL_v67aa64utj","msl000119","freq","","","img/orange_2bandit_b2.png","null","","70","test","0","","","circle","square","95","92","15","4","0.8152173913043478","","","","","","","","","",""
"null","","3702995","SARL_v67aa64utj","msl000119","fixation","","","img/fixation.png","null","","","test","","","","","","","","","","","","","","","","","","","",""
"561","","3703561","SARL_v67aa64utj","msl000119","infreq","","","img/green_2bandit_b2.png","68","","68","test","1","","","circle","square","96","93","16","4","0.8172043010752689","","","","","","","","","",""
"null","","3703805","SARL_v67aa64utj","msl000119","infreq_resp","","","img/green_2bandit_b.png","68","img/green_2bandit_b.png","68","test","","","","","","","","","4","","","","","","","","","","",""
"null","","3703961","SARL_v67aa64utj","msl000119","fixation","","","img/fixation.png","null","","","test","","","","","","","","","","","","","","","","","","","",""
"496","","3704461","SARL_v67aa64utj","msl000119","freq","","","img/orange_2bandit_b2.png","70","","70","test","1","","","circle","square","97","94","17","4","0.8191489361702128","","","","","","","","","",""
"null","","3704770","SARL_v67aa64utj","msl000119","freq_resp","","","img/orange_2bandit_b.png","70","img/orange_2bandit_b.png","70","test","","","","","","","","","4","","","","","","","","","","",""
"null","","3704927","SARL_v67aa64utj","msl000119","fixation","","","img/fixation.png","null","","","test","","","","","","","","","","","","","","","","","","","",""
"527","","3705457","SARL_v67aa64utj","msl000119","freq","","","img/orange_2bandit_b2.png","70","","70","test","1","","","circle","square","98","95","18","4","0.8210526315789474","","","","","","","","","",""
"null","","3705736","SARL_v67aa64utj","msl000119","freq_resp","","","img/orange_2bandit_b.png","70","img/orange_2bandit_b.png","70","test","","","","","","","","","4","","","","","","","","","","",""
"null","","3705892","SARL_v67aa64utj","msl000119","fixation","","","img/fixation.png","null","","","test","","","","","","","","","","","","","","","","","","","",""
"591","","3706488","SARL_v67aa64utj","msl000119","freq","","","img/orange_2bandit_b2.png","70","","70","test","1","","","circle","square","99","96","19","4","0.8229166666666666","","","","","","","","","",""
"null","","3706703","SARL_v67aa64utj","msl000119","freq_resp","","","img/orange_2bandit_b.png","70","img/orange_2bandit_b.png","70","test","","","","","","","","","4","","","","","","","","","","",""
"null","","3706858","SARL_v67aa64utj","msl000119","fixation","","","img/fixation.png","null","","","test","","","","","","","","","","","","","","","","","","","",""
"639","","3707501","SARL_v67aa64utj","msl000119","freq","","","img/orange_2bandit_b2.png","70","","70","test","1","","","circle","square","100","97","20","4","0.8247422680412371","","","","","","","","","",""
"null","","3707668","SARL_v67aa64utj","msl000119","freq_resp","","","img/orange_2bandit_b.png","70","img/orange_2bandit_b.png","70","test","","","","","","","","","4","","","","","","","","","","",""
"null","","3707824","SARL_v67aa64utj","msl000119","fixation","","","img/fixation.png","null","","","test","","","","","","","","","","","","","","","","","","","",""
"659","","3708488","SARL_v67aa64utj","msl000119","freq","","","img/orange_2bandit_b2.png","70","","70","test","1","","","circle","square","101","98","21","4","0.826530612244898","","","","","","","","","",""
"null","","3708634","SARL_v67aa64utj","msl000119","freq_resp","","","img/orange_2bandit_b.png","70","img/orange_2bandit_b.png","70","test","","","","","","","","","4","","","","","","","","","","",""
"null","","3708791","SARL_v67aa64utj","msl000119","fixation","","","img/fixation.png","null","","","test","","","","","","","","","","","","","","","","","","","",""
"612","","3709409","SARL_v67aa64utj","msl000119","freq","","","img/orange_2bandit_b2.png","70","","70","test","1","","","circle","square","102","99","22","4","0.8282828282828283","","","","","","","","","",""
"null","","3709602","SARL_v67aa64utj","msl000119","freq_resp","","","img/orange_2bandit_b.png","70","img/orange_2bandit_b.png","70","test","","","","","","","","","4","","","","","","","","","","",""
"null","","3709757","SARL_v67aa64utj","msl000119","fixation","","","img/fixation.png","null","","","test","","","","","","","","","","","","","","","","","","","",""
"577","","3710340","SARL_v67aa64utj","msl000119","freq","","","img/orange_2bandit_b2.png","70","","70","test","1","","","circle","square","103","100","23","4","0.83","","","","","","","","","",""
"null","","3710569","SARL_v67aa64utj","msl000119","freq_resp","","","img/orange_2bandit_b.png","70","img/orange_2bandit_b.png","70","test","","","","","","","","","4","","","","","","","","","","",""
"null","","3710725","SARL_v67aa64utj","msl000119","fixation","","","img/fixation.png","null","","","test","","","","","","","","","","","","","","","","","","","",""
"549","","3711279","SARL_v67aa64utj","msl000119","freq","","","img/orange_2bandit_b2.png","70","","70","test","1","","","circle","square","104","101","24","4","0.8316831683168316","","","","","","","","","",""
"null","","3711535","SARL_v67aa64utj","msl000119","freq_resp","","","img/orange_2bandit_b.png","70","img/orange_2bandit_b.png","70","test","","","","","","","","","4","","","","","","","","","","",""
"null","","3711690","SARL_v67aa64utj","msl000119","fixation","","","img/fixation.png","null","","","test","","","","","","","","","","","","","","","","","","","",""
"593","","3712288","SARL_v67aa64utj","msl000119","freq","","","img/orange_2bandit_b2.png","70","","70","test","1","","","circle","square","105","102","25","4","0.8333333333333334","","","","","","","","","",""
"null","","3712501","SARL_v67aa64utj","msl000119","freq_resp","","","img/orange_2bandit_b.png","70","img/orange_2bandit_b.png","70","test","","","","","","","","","4","","","","","","","","","","",""
"null","","3712657","SARL_v67aa64utj","msl000119","fixation","","","img/fixation.png","null","","","test","","","","","","","","","","","","","","","","","","","",""
"605","","3713267","SARL_v67aa64utj","msl000119","freq","","","img/orange_2bandit_b2.png","70","","70","test","1","","","circle","square","106","103","26","4","0.8349514563106796","","","","","","","","","",""
"null","","3713467","SARL_v67aa64utj","msl000119","freq_resp","","","img/orange_2bandit_b.png","70","img/orange_2bandit_b.png","70","test","","","","","","","","","4","","","","","","","","","","",""
"null","","3713623","SARL_v67aa64utj","msl000119","fixation","","","img/fixation.png","null","","","test","","","","","","","","","","","","","","","","","","","",""
"612","","3714240","SARL_v67aa64utj","msl000119","freq","","","img/orange_2bandit_b2.png","70","","70","test","1","","","circle","square","107","104","27","4","0.8365384615384616","","","","","","","","","",""
"null","","3714434","SARL_v67aa64utj","msl000119","freq_resp","","","img/orange_2bandit_b.png","70","img/orange_2bandit_b.png","70","test","","","","","","","","","4","","","","","","","","","","",""
"null","","3714590","SARL_v67aa64utj","msl000119","fixation","","","img/fixation.png","null","","","test","","","","","","","","","","","","","","","","","","","",""
"678","","3715273","SARL_v67aa64utj","msl000119","rl","","","img/black_2bandit_b2.png","75","","0","test","","","0","circle","square","108","","0","4","","75","0.8","0.2","0.3044774950542264","0.8","0.2","0.2","square","4","0"
"null","","3716028","SARL_v67aa64utj","msl000119","feedback","","","img/boo_R_b.png","null","","na","test","","","","","","","","","4","","75","0.8","0.2","","","","0.2","","4",""
"null","","3716834","SARL_v67aa64utj","msl000119","freq","","","img/orange_2bandit_b2.png","null","","70","test","0","","","circle","square","109","105","1","5","0.8285714285714286","","","","","","","","","",""
"null","","3716988","SARL_v67aa64utj","msl000119","fixation","","","img/fixation.png","null","","","test","","","","","","","","","","","","","","","","","","","",""
"702","","3717698","SARL_v67aa64utj","msl000119","infreq","","","img/green_2bandit_b2.png","68","","68","test","1","","","circle","square","110","106","2","5","0.8301886792452831","","","","","","","","","",""
"null","","3717801","SARL_v67aa64utj","msl000119","infreq_resp","","","img/green_2bandit_b.png","68","img/green_2bandit_b.png","68","test","","","","","","","","","5","","","","","","","","","","",""
"null","","3717956","SARL_v67aa64utj","msl000119","fixation","","","img/fixation.png","null","","","test","","","","","","","","","","","","","","","","","","","",""
"424","","3718385","SARL_v67aa64utj","msl000119","freq","","","img/orange_2bandit_b2.png","70","","70","test","1","","","circle","square","111","107","3","5","0.8317757009345794","","","","","","","","","",""
"null","","3718767","SARL_v67aa64utj","msl000119","freq_resp","","","img/orange_2bandit_b.png","70","img/orange_2bandit_b.png","70","test","","","","","","","","","5","","","","","","","","","","",""
"null","","3718923","SARL_v67aa64utj","msl000119","fixation","","","img/fixation.png","null","","","test","","","","","","","","","","","","","","","","","","","",""
"null","","3719728","SARL_v67aa64utj","msl000119","freq","","","img/orange_2bandit_b2.png","null","","70","test","0","","","circle","square","112","108","4","5","0.8240740740740741","","","","","","","","","",""
"null","","3719883","SARL_v67aa64utj","msl000119","fixation","","","img/fixation.png","null","","","test","","","","","","","","","","","","","","","","","","","",""
"null","","3720688","SARL_v67aa64utj","msl000119","freq","","","img/orange_2bandit_b2.png","null","","70","test","0","","","circle","square","113","109","5","5","0.8165137614678899","","","","","","","","","",""
"null","","3720844","SARL_v67aa64utj","msl000119","fixation","","","img/fixation.png","null","","","test","","","","","","","","","","","","","","","","","","","",""
"367","","3721216","SARL_v67aa64utj","msl000119","freq","","","img/orange_2bandit_b2.png","70","","70","test","1","","","circle","square","114","110","6","5","0.8181818181818182","","","","","","","","","",""
"null","","3721654","SARL_v67aa64utj","msl000119","freq_resp","","","img/orange_2bandit_b.png","70","img/orange_2bandit_b.png","70","test","","","","","","","","","5","","","","","","","","","","",""
"null","","3721810","SARL_v67aa64utj","msl000119","fixation","","","img/fixation.png","null","","","test","","","","","","","","","","","","","","","","","","","",""
"243","","3722059","SARL_v67aa64utj","msl000119","freq","","","img/orange_2bandit_b2.png","70","","70","test","1","","","circle","square","115","111","7","5","0.8198198198198198","","","","","","","","","",""
"null","","3722621","SARL_v67aa64utj","msl000119","freq_resp","","","img/orange_2bandit_b.png","70","img/orange_2bandit_b.png","70","test","","","","","","","","","5","","","","","","","","","","",""
"null","","3722777","SARL_v67aa64utj","msl000119","fixation","","","img/fixation.png","null","","","test","","","","","","","","","","","","","","","","","","","",""
"269","","3723050","SARL_v67aa64utj","msl000119","freq","","","img/orange_2bandit_b2.png","70","","70","test","1","","","circle","square","116","112","8","5","0.8214285714285714","","","","","","","","","",""
"null","","3723587","SARL_v67aa64utj","msl000119","freq_resp","","","img/orange_2bandit_b.png","70","img/orange_2bandit_b.png","70","test","","","","","","","","","5","","","","","","","","","","",""
"null","","3723744","SARL_v67aa64utj","msl000119","fixation","","","img/fixation.png","null","","","test","","","","","","","","","","","","","","","","","","","",""
"282","","3724030","SARL_v67aa64utj","msl000119","freq","","","img/orange_2bandit_b2.png","70","","70","test","1","","","circle","square","117","113","9","5","0.8230088495575221","","","","","","","","","",""
"null","","3724553","SARL_v67aa64utj","msl000119","freq_resp","","","img/orange_2bandit_b.png","70","img/orange_2bandit_b.png","70","test","","","","","","","","","5","","","","","","","","","","",""
"null","","3724709","SARL_v67aa64utj","msl000119","fixation","","","img/fixation.png","null","","","test","","","","","","","","","","","","","","","","","","","",""
"255","","3724969","SARL_v67aa64utj","msl000119","freq","","","img/orange_2bandit_b2.png","70","","70","test","1","","","circle","square","118","114","10","5","0.8245614035087719","","","","","","","","","",""
"null","","3725519","SARL_v67aa64utj","msl000119","freq_resp","","","img/orange_2bandit_b.png","70","img/orange_2bandit_b.png","70","test","","","","","","","","","5","","","","","","","","","","",""
"null","","3725675","SARL_v67aa64utj","msl000119","fixation","","","img/fixation.png","null","","","test","","","","","","","","","","","","","","","","","","","",""
"268","","3725949","SARL_v67aa64utj","msl000119","freq","","","img/orange_2bandit_b2.png","70","","70","test","1","","","circle","square","119","115","11","5","0.8260869565217391","","","","","","","","","",""
"null","","3726486","SARL_v67aa64utj","msl000119","freq_resp","","","img/orange_2bandit_b.png","70","img/orange_2bandit_b.png","70","test","","","","","","","","","5","","","","","","","","","","",""
"null","","3726642","SARL_v67aa64utj","msl000119","fixation","","","img/fixation.png","null","","","test","","","","","","","","","","","","","","","","","","","",""
"354","","3727000","SARL_v67aa64utj","msl000119","freq","","","img/orange_2bandit_b2.png","70","","70","test","1","","","circle","square","120","116","12","5","0.8275862068965517","","","","","","","","","",""
"null","","3727452","SARL_v67aa64utj","msl000119","freq_resp","","","img/orange_2bandit_b.png","70","img/orange_2bandit_b.png","70","test","","","","","","","","","5","","","","","","","","","","",""
"null","","3727607","SARL_v67aa64utj","msl000119","fixation","","","img/fixation.png","null","","","test","","","","","","","","","","","","","","","","","","","",""
"352","","3727963","SARL_v67aa64utj","msl000119","freq","","","img/orange_2bandit_b2.png","70","","70","test","1","","","circle","square","121","117","13","5","0.8290598290598291","","","","","","","","","",""
"null","","3728416","SARL_v67aa64utj","msl000119","freq_resp","","","img/orange_2bandit_b.png","70","img/orange_2bandit_b.png","70","test","","","","","","","","","5","","","","","","","","","","",""
"null","","3728573","SARL_v67aa64utj","msl000119","fixation","","","img/fixation.png","null","","","test","","","","","","","","","","","","","","","","","","","",""
"379","","3728957","SARL_v67aa64utj","msl000119","freq","","","img/orange_2bandit_b2.png","70","","70","test","1","","","circle","square","122","118","14","5","0.8305084745762712","","","","","","","","","",""
"null","","3729383","SARL_v67aa64utj","msl000119","freq_resp","","","img/orange_2bandit_b.png","70","img/orange_2bandit_b.png","70","test","","","","","","","","","5","","","","","","","","","","",""
"null","","3729540","SARL_v67aa64utj","msl000119","fixation","","","img/fixation.png","null","","","test","","","","","","","","","","","","","","","","","","","",""
"373","","3729917","SARL_v67aa64utj","msl000119","freq","","","img/orange_2bandit_b2.png","70","","70","test","1","","","circle","square","123","119","15","5","0.8319327731092437","","","","","","","","","",""
"null","","3730349","SARL_v67aa64utj","msl000119","freq_resp","","","img/orange_2bandit_b.png","70","img/orange_2bandit_b.png","70","test","","","","","","","","","5","","","","","","","","","","",""
"null","","3730506","SARL_v67aa64utj","msl000119","fixation","","","img/fixation.png","null","","","test","","","","","","","","","","","","","","","","","","","",""
"404","","3730914","SARL_v67aa64utj","msl000119","freq","","","img/orange_2bandit_b2.png","70","","70","test","1","","","circle","square","124","120","16","5","0.8333333333333334","","","","","","","","","",""
"null","","3731315","SARL_v67aa64utj","msl000119","freq_resp","","","img/orange_2bandit_b.png","70","img/orange_2bandit_b.png","70","test","","","","","","","","","5","","","","","","","","","","",""
"null","","3731471","SARL_v67aa64utj","msl000119","fixation","","","img/fixation.png","null","","","test","","","","","","","","","","","","","","","","","","","",""
"553","","3732028","SARL_v67aa64utj","msl000119","infreq","","","img/green_2bandit_b2.png","68","","68","test","1","","","circle","square","125","121","17","5","0.8347107438016529","","","","","","","","","",""
"null","","3732281","SARL_v67aa64utj","msl000119","infreq_resp","","","img/green_2bandit_b.png","68","img/green_2bandit_b.png","68","test","","","","","","","","","5","","","","","","","","","","",""
"null","","3732437","SARL_v67aa64utj","msl000119","fixation","","","img/fixation.png","null","","","test","","","","","","","","","","","","","","","","","","","",""
"686","","3733128","SARL_v67aa64utj","msl000119","freq","","","img/orange_2bandit_b2.png","70","","70","test","1","","","circle","square","126","122","18","5","0.8360655737704918","","","","","","","","","",""
"null","","3733247","SARL_v67aa64utj","msl000119","freq_resp","","","img/orange_2bandit_b.png","70","img/orange_2bandit_b.png","70","test","","","","","","","","","5","","","","","","","","","","",""
"null","","3733402","SARL_v67aa64utj","msl000119","fixation","","","img/fixation.png","null","","","test","","","","","","","","","","","","","","","","","","","",""
"674","","3734081","SARL_v67aa64utj","msl000119","freq","","","img/orange_2bandit_b2.png","70","","70","test","1","","","circle","square","127","123","19","5","0.8373983739837398","","","","","","","","","",""
"null","","3734212","SARL_v67aa64utj","msl000119","freq_resp","","","img/orange_2bandit_b.png","70","img/orange_2bandit_b.png","70","test","","","","","","","","","5","","","","","","","","","","",""
"null","","3734367","SARL_v67aa64utj","msl000119","fixation","","","img/fixation.png","null","","","test","","","","","","","","","","","","","","","","","","","",""
"570","","3734944","SARL_v67aa64utj","msl000119","rl","","","img/black_2bandit_b2.png","74","","0","test","","","1","circle","square","128","","0","5","","74","0.8","0.2","0.2547725274810291","0.8","0.2","0.8","circle","5","0"
"null","","3735700","SARL_v67aa64utj","msl000119","feedback","","","img/yay_L_b.png","null","","na","test","","","","","","","","","5","","74","0.8","0.2","","","","0.8","","5",""
"680","","3736384","SARL_v67aa64utj","msl000119","freq","","","img/orange_2bandit_b2.png","70","","70","test","1","","","circle","square","129","124","1","6","0.8387096774193549","","","","","","","","","",""
"null","","3736510","SARL_v67aa64utj","msl000119","freq_resp","","","img/orange_2bandit_b.png","70","img/orange_2bandit_b.png","70","test","","","","","","","","","6","","","","","","","","","","",""
"null","","3736665","SARL_v67aa64utj","msl000119","fixation","","","img/fixation.png","null","","","test","","","","","","","","","","","","","","","","","","","",""
"649","","3737318","SARL_v67aa64utj","msl000119","freq","","","img/orange_2bandit_b2.png","70","","70","test","1","","","circle","square","130","125","2","6","0.84","","","","","","","","","",""
"null","","3737475","SARL_v67aa64utj","msl000119","freq_resp","","","img/orange_2bandit_b.png","70","img/orange_2bandit_b.png","70","test","","","","","","","","","6","","","","","","","","","","",""
"null","","3737631","SARL_v67aa64utj","msl000119","fixation","","","img/fixation.png","null","","","test","","","","","","","","","","","","","","","","","","","",""
"791","","3738427","SARL_v67aa64utj","msl000119","freq","","","img/orange_2bandit_b2.png","70","","70","test","1","","","circle","square","131","126","3","6","0.8412698412698413","","","","","","","","","",""
"null","","3738442","SARL_v67aa64utj","msl000119","freq_resp","","","img/orange_2bandit_b.png","70","img/orange_2bandit_b.png","70","test","","","","","","","","","6","","","","","","","","","","",""
"null","","3738597","SARL_v67aa64utj","msl000119","fixation","","","img/fixation.png","null","","","test","","","","","","","","","","","","","","","","","","","",""
"604","","3739205","SARL_v67aa64utj","msl000119","infreq","","","img/green_2bandit_b2.png","68","","68","test","1","","","circle","square","132","127","4","6","0.84251968503937","","","","","","","","","",""
"null","","3739407","SARL_v67aa64utj","msl000119","infreq_resp","","","img/green_2bandit_b.png","68","img/green_2bandit_b.png","68","test","","","","","","","","","6","","","","","","","","","","",""
"null","","3739562","SARL_v67aa64utj","msl000119","fixation","","","img/fixation.png","null","","","test","","","","","","","","","","","","","","","","","","","",""
"554","","3740121","SARL_v67aa64utj","msl000119","freq","","","img/orange_2bandit_b2.png","70","","70","test","1","","","circle","square","133","128","5","6","0.84375","","","","","","","","","",""
"null","","3740373","SARL_v67aa64utj","msl000119","freq_resp","","","img/orange_2bandit_b.png","70","img/orange_2bandit_b.png","70","test","","","","","","","","","6","","","","","","","","","","",""
"null","","3740528","SARL_v67aa64utj","msl000119","fixation","","","img/fixation.png","null","","","test","","","","","","","","","","","","","","","","","","","",""
"704","","3741237","SARL_v67aa64utj","msl000119","freq","","","img/orange_2bandit_b2.png","70","","70","test","1","","","circle","square","134","129","6","6","0.8449612403100775","","","","","","","","","",""
"null","","3741338","SARL_v67aa64utj","msl000119","freq_resp","","","img/orange_2bandit_b.png","70","img/orange_2bandit_b.png","70","test","","","","","","","","","6","","","","","","","","","","",""
"null","","3741493","SARL_v67aa64utj","msl000119","fixation","","","img/fixation.png","null","","","test","","","","","","","","","","","","","","","","","","","",""
"752","","3742249","SARL_v67aa64utj","msl000119","freq","","","img/orange_2bandit_b2.png","70","","70","test","1","","","circle","square","135","130","7","6","0.8461538461538461","","","","","","","","","",""
"null","","3742303","SARL_v67aa64utj","msl000119","freq_resp","","","img/orange_2bandit_b.png","70","img/orange_2bandit_b.png","70","test","","","","","","","","","6","","","","","","","","","","",""
"null","","3742459","SARL_v67aa64utj","msl000119","fixation","","","img/fixation.png","null","","","test","","","","","","","","","","","","","","","","","","","",""
"660","","3743123","SARL_v67aa64utj","msl000119","freq","","","img/orange_2bandit_b2.png","70","","70","test","1","","","circle","square","136","131","8","6","0.8473282442748091","","","","","","","","","",""
"null","","3743269","SARL_v67aa64utj","msl000119","freq_resp","","","img/orange_2bandit_b.png","70","img/orange_2bandit_b.png","70","test","","","","","","","","","6","","","","","","","","","","",""
"null","","3743423","SARL_v67aa64utj","msl000119","fixation","","","img/fixation.png","null","","","test","","","","","","","","","","","","","","","","","","","",""
"618","","3744047","SARL_v67aa64utj","msl000119","freq","","","img/orange_2bandit_b2.png","70","","70","test","1","","","circle","square","137","132","9","6","0.8484848484848485","","","","","","","","","",""
"null","","3744235","SARL_v67aa64utj","msl000119","freq_resp","","","img/orange_2bandit_b.png","70","img/orange_2bandit_b.png","70","test","","","","","","","","","6","","","","","","","","","","",""
"null","","3744390","SARL_v67aa64utj","msl000119","fixation","","","img/fixation.png","null","","","test","","","","","","","","","","","","","","","","","","","",""
"525","","3744920","SARL_v67aa64utj","msl000119","infreq","","","img/green_2bandit_b2.png","68","","68","test","1","","","circle","square","138","133","10","6","0.849624060150376","","","","","","","","","",""
"null","","3745201","SARL_v67aa64utj","msl000119","infreq_resp","","","img/green_2bandit_b.png","68","img/green_2bandit_b.png","68","test","","","","","","","","","6","","","","","","","","","","",""
"null","","3745356","SARL_v67aa64utj","msl000119","fixation","","","img/fixation.png","null","","","test","","","","","","","","","","","","","","","","","","","",""
"476","","3745838","SARL_v67aa64utj","msl000119","freq","","","img/orange_2bandit_b2.png","70","","70","test","1","","","circle","square","139","134","11","6","0.8507462686567164","","","","","","","","","",""
"null","","3746168","SARL_v67aa64utj","msl000119","freq_resp","","","img/orange_2bandit_b.png","70","img/orange_2bandit_b.png","70","test","","","","","","","","","6","","","","","","","","","","",""
"null","","3746324","SARL_v67aa64utj","msl000119","fixation","","","img/fixation.png","null","","","test","","","","","","","","","","","","","","","","","","","",""
"539","","3746866","SARL_v67aa64utj","msl000119","freq","","","img/orange_2bandit_b2.png","70","","70","test","1","","","circle","square","140","135","12","6","0.8518518518518519","","","","","","","","","",""
"null","","3747133","SARL_v67aa64utj","msl000119","freq_resp","","","img/orange_2bandit_b.png","70","img/orange_2bandit_b.png","70","test","","","","","","","","","6","","","","","","","","","","",""
"null","","3747288","SARL_v67aa64utj","msl000119","fixation","","","img/fixation.png","null","","","test","","","","","","","","","","","","","","","","","","","",""
"587","","3747880","SARL_v67aa64utj","msl000119","freq","","","img/orange_2bandit_b2.png","70","","70","test","1","","","circle","square","141","136","13","6","0.8529411764705882","","","","","","","","","",""
"null","","3748099","SARL_v67aa64utj","msl000119","freq_resp","","","img/orange_2bandit_b.png","70","img/orange_2bandit_b.png","70","test","","","","","","","","","6","","","","","","","","","","",""
"null","","3748254","SARL_v67aa64utj","msl000119","fixation","","","img/fixation.png","null","","","test","","","","","","","","","","","","","","","","","","","",""
"510","","3748768","SARL_v67aa64utj","msl000119","freq","","","img/orange_2bandit_b2.png","70","","70","test","1","","","circle","square","142","137","14","6","0.8540145985401459","","","","","","","","","",""
"null","","3749064","SARL_v67aa64utj","msl000119","freq_resp","","","img/orange_2bandit_b.png","70","img/orange_2bandit_b.png","70","test","","","","","","","","","6","","","","","","","","","","",""
"null","","3749220","SARL_v67aa64utj","msl000119","fixation","","","img/fixation.png","null","","","test","","","","","","","","","","","","","","","","","","","",""
"513","","3749737","SARL_v67aa64utj","msl000119","freq","","","img/orange_2bandit_b2.png","70","","70","test","1","","","circle","square","143","138","15","6","0.855072463768116","","","","","","","","","",""
"null","","3750029","SARL_v67aa64utj","msl000119","freq_resp","","","img/orange_2bandit_b.png","70","img/orange_2bandit_b.png","70","test","","","","","","","","","6","","","","","","","","","","",""
"null","","3750185","SARL_v67aa64utj","msl000119","fixation","","","img/fixation.png","null","","","test","","","","","","","","","","","","","","","","","","","",""
"546","","3750735","SARL_v67aa64utj","msl000119","freq","","","img/orange_2bandit_b2.png","70","","70","test","1","","","circle","square","144","139","16","6","0.8561151079136691","","","","","","","","","",""
"null","","3750994","SARL_v67aa64utj","msl000119","freq_resp","","","img/orange_2bandit_b.png","70","img/orange_2bandit_b.png","70","test","","","","","","","","","6","","","","","","","","","","",""
"null","","3751149","SARL_v67aa64utj","msl000119","fixation","","","img/fixation.png","null","","","test","","","","","","","","","","","","","","","","","","","",""
"535","","3751689","SARL_v67aa64utj","msl000119","freq","","","img/orange_2bandit_b2.png","70","","70","test","1","","","circle","square","145","140","17","6","0.8571428571428571","","","","","","","","","",""
"null","","3751960","SARL_v67aa64utj","msl000119","freq_resp","","","img/orange_2bandit_b.png","70","img/orange_2bandit_b.png","70","test","","","","","","","","","6","","","","","","","","","","",""
"null","","3752116","SARL_v67aa64utj","msl000119","fixation","","","img/fixation.png","null","","","test","","","","","","","","","","","","","","","","","","","",""
"391","","3752513","SARL_v67aa64utj","msl000119","freq","","","img/orange_2bandit_b2.png","70","","70","test","1","","","circle","square","146","141","18","6","0.8581560283687943","","","","","","","","","",""
"null","","3752928","SARL_v67aa64utj","msl000119","freq_resp","","","img/orange_2bandit_b.png","70","img/orange_2bandit_b.png","70","test","","","","","","","","","6","","","","","","","","","","",""
"null","","3753083","SARL_v67aa64utj","msl000119","fixation","","","img/fixation.png","null","","","test","","","","","","","","","","","","","","","","","","","",""
"526","","3753614","SARL_v67aa64utj","msl000119","freq","","","img/orange_2bandit_b2.png","70","","70","test","1","","","circle","square","147","142","19","6","0.8591549295774648","","","","","","","","","",""
"null","","3753894","SARL_v67aa64utj","msl000119","freq_resp","","","img/orange_2bandit_b.png","70","img/orange_2bandit_b.png","70","test","","","","","","","","","6","","","","","","","","","","",""
"null","","3754049","SARL_v67aa64utj","msl000119","fixation","","","img/fixation.png","null","","","test","","","","","","","","","","","","","","","","","","","",""
"492","","3754544","SARL_v67aa64utj","msl000119","freq","","","img/orange_2bandit_b2.png","70","","70","test","1","","","circle","square","148","143","20","6","0.8601398601398601","","","","","","","","","",""
"null","","3754857","SARL_v67aa64utj","msl000119","freq_resp","","","img/orange_2bandit_b.png","70","img/orange_2bandit_b.png","70","test","","","","","","","","","6","","","","","","","","","","",""
"null","","3755014","SARL_v67aa64utj","msl000119","fixation","","","img/fixation.png","null","","","test","","","","","","","","","","","","","","","","","","","",""
"484","","3755502","SARL_v67aa64utj","msl000119","freq","","","img/orange_2bandit_b2.png","70","","70","test","1","","","circle","square","149","144","21","6","0.8611111111111112","","","","","","","","","",""
"null","","3755823","SARL_v67aa64utj","msl000119","freq_resp","","","img/orange_2bandit_b.png","70","img/orange_2bandit_b.png","70","test","","","","","","","","","6","","","","","","","","","","",""
"null","","3755978","SARL_v67aa64utj","msl000119","fixation","","","img/fixation.png","null","","","test","","","","","","","","","","","","","","","","","","","",""
"374","","3756356","SARL_v67aa64utj","msl000119","freq","","","img/orange_2bandit_b2.png","70","","70","test","1","","","circle","square","150","145","22","6","0.8620689655172413","","","","","","","","","",""
"null","","3756788","SARL_v67aa64utj","msl000119","freq_resp","","","img/orange_2bandit_b.png","70","img/orange_2bandit_b.png","70","test","","","","","","","","","6","","","","","","","","","","",""
"null","","3756943","SARL_v67aa64utj","msl000119","fixation","","","img/fixation.png","null","","","test","","","","","","","","","","","","","","","","","","","",""
"395","","3757343","SARL_v67aa64utj","msl000119","freq","","","img/orange_2bandit_b2.png","70","","70","test","1","","","circle","square","151","146","23","6","0.863013698630137","","","","","","","","","",""
"null","","3757753","SARL_v67aa64utj","msl000119","freq_resp","","","img/orange_2bandit_b.png","70","img/orange_2bandit_b.png","70","test","","","","","","","","","6","","","","","","","","","","",""
"null","","3757909","SARL_v67aa64utj","msl000119","fixation","","","img/fixation.png","null","","","test","","","","","","","","","","","","","","","","","","","",""
"423","","3758337","SARL_v67aa64utj","msl000119","freq","","","img/orange_2bandit_b2.png","70","","70","test","1","","","circle","square","152","147","24","6","0.8639455782312925","","","","","","","","","",""
