"rt","responses","time_elapsed","subject","demoID","trialType","rlType","attType","stimulus","key_press","stim","corrresp","phase","corr","pracCounter","reward","bandOne","bandTwo","trialNum","attentionNum","attentionRunNum","blockNum","performance","bandChosen","circleVal","squareVal","coin","bandOneVal","bandTwoVal","pReward","shapeChosen","rlNum","badFlag"
"189187","{""Q0"":""msl000173""}","189212","SARL_v646shwf11","msl000173","","","","","","","","","","","","","","","","","","","","","","","","","","","",""
"2252","","191471","SARL_v646shwf11","msl000173","","","","","","","","","","","","","","","","","","","","","","","","","","","",""
"","","193709","SARL_v646shwf11","msl000173","fullscreen","fullscreen","fullscreen","","","","","","","","","","","","","","","","","","","","","","","","",""
"113680","","307394","SARL_v646shwf11","msl000173","","","","","","","","","","","","","","","","","","","","","","","","","","","",""
"null","","308199","SARL_v646shwf11","msl000173","freqPrac","","","img/orange_2bandit_a2.png","null","img/orange_2bandit_a2.png","70","prac","0","1","","","","","","","","","","","","","","","","","",""
"null","","309204","SARL_v646shwf11","msl000173","feedback","","","img/tooSlow.png","null","","na","prac","","","","","","","","","","","","","","","","","","","",""
"null","","309360","SARL_v646shwf11","msl000173","fixation","","","img/fixation.png","null","","","prac","","","","","","","","","","","","","","","","","","","",""
"355","","309719","SARL_v646shwf11","msl000173","infreqPrac","","","img/green_2bandit_a2.png","68","img/green_2bandit_a2.png","68","prac","1","1","","","","","","","","","","","","","","","","","",""
"355","","310170","SARL_v646shwf11","msl000173","infreqPrac_resp","","","img/green_2bandit_a.png","68","img/green_2bandit_a.png","68","prac","","","","","","","","","","","","","","","","","","","",""
"47","","310326","SARL_v646shwf11","msl000173","fixation","","","img/fixation.png","68","","","prac","","","","","","","","","","","","","","","","","","","",""
"412","","310743","SARL_v646shwf11","msl000173","freqPrac","","","img/orange_2bandit_a2.png","70","img/orange_2bandit_a2.png","70","prac","1","1","","","","","","","","","","","","","","","","","",""
"412","","311135","SARL_v646shwf11","msl000173","freqPrac_resp","","","img/orange_2bandit_a.png","70","img/orange_2bandit_a.png","70","prac","","","","","","","","","","","","","","","","","","","",""
"null","","311291","SARL_v646shwf11","msl000173","fixation","","","img/fixation.png","null","","","prac","","","","","","","","","","","","","","","","","","","",""
"299","","311595","SARL_v646shwf11","msl000173","infreqPrac","","","img/green_2bandit_a2.png","70","img/green_2bandit_a2.png","68","prac","0","2","","","","","","","","","","","","","","","","","",""
"299","","312102","SARL_v646shwf11","msl000173","infreqPrac_resp","","","img/green_2bandit_a.png","70","img/green_2bandit_a.png","68","prac","","","","","","","","","","","","","","","","","","","",""
"null","","313107","SARL_v646shwf11","msl000173","feedback","","","img/wrongKey.png","null","","na","prac","","","","","","","","","","","","","","","","","","","",""
"null","","313263","SARL_v646shwf11","msl000173","fixation","","","img/fixation.png","null","","","prac","","","","","","","","","","","","","","","","","","","",""
"670","","313937","SARL_v646shwf11","msl000173","infreqPrac","","","img/green_2bandit_a2.png","68","img/green_2bandit_a2.png","68","prac","1","2","","","","","","","","","","","","","","","","","",""
"670","","314073","SARL_v646shwf11","msl000173","infreqPrac_resp","","","img/green_2bandit_a.png","68","img/green_2bandit_a.png","68","prac","","","","","","","","","","","","","","","","","","","",""
"null","","314229","SARL_v646shwf11","msl000173","fixation","","","img/fixation.png","null","","","prac","","","","","","","","","","","","","","","","","","","",""
"285","","314519","SARL_v646shwf11","msl000173","infreqPrac","","","img/green_2bandit_a2.png","68","img/green_2bandit_a2.png","68","prac","1","2","","","","","","","","","","","","","","","","","",""
"285","","315039","SARL_v646shwf11","msl000173","infreqPrac_resp","","","img/green_2bandit_a.png","68","img/green_2bandit_a.png","68","prac","","","","","","","","","","","","","","","","","","","",""
"null","","315194","SARL_v646shwf11","msl000173","fixation","","","img/fixation.png","null","","","prac","","","","","","","","","","","","","","","","","","","",""
"383","","315582","SARL_v646shwf11","msl000173","freqPrac","","","img/orange_2bandit_a2.png","70","img/orange_2bandit_a2.png","70","prac","1","2","","","","","","","","","","","","","","","","","",""
"383","","316004","SARL_v646shwf11","msl000173","freqPrac_resp","","","img/orange_2bandit_a.png","70","img/orange_2bandit_a.png","70","prac","","","","","","","","","","","","","","","","","","","",""
"null","","316160","SARL_v646shwf11","msl000173","fixation","","","img/fixation.png","null","","","prac","","","","","","","","","","","","","","","","","","","",""
"381","","316545","SARL_v646shwf11","msl000173","infreqPrac","","","img/green_2bandit_a2.png","68","img/green_2bandit_a2.png","68","prac","1","2","","","","","","","","","","","","","","","","","",""
"381","","316969","SARL_v646shwf11","msl000173","infreqPrac_resp","","","img/green_2bandit_a.png","68","img/green_2bandit_a.png","68","prac","","","","","","","","","","","","","","","","","","","",""
"null","","317125","SARL_v646shwf11","msl000173","fixation","","","img/fixation.png","null","","","prac","","","","","","","","","","","","","","","","","","","",""
"304","","317435","SARL_v646shwf11","msl000173","freqPrac","","","img/orange_2bandit_a2.png","70","img/orange_2bandit_a2.png","70","prac","1","2","","","","","","","","","","","","","","","","","",""
"304","","317936","SARL_v646shwf11","msl000173","freqPrac_resp","","","img/orange_2bandit_a.png","70","img/orange_2bandit_a.png","70","prac","","","","","","","","","","","","","","","","","","","",""
"null","","318091","SARL_v646shwf11","msl000173","fixation","","","img/fixation.png","null","","","prac","","","","","","","","","","","","","","","","","","","",""
"210","","318306","SARL_v646shwf11","msl000173","freqPrac","","","img/orange_2bandit_a2.png","68","img/orange_2bandit_a2.png","70","prac","0","3","","","","","","","","","","","","","","","","","",""
"210","","318902","SARL_v646shwf11","msl000173","freqPrac_resp","","","img/orange_2bandit_a.png","68","img/orange_2bandit_a.png","70","prac","","","","","","","","","","","","","","","","","","","",""
"null","","319906","SARL_v646shwf11","msl000173","feedback","","","img/wrongKey.png","null","","na","prac","","","","","","","","","","","","","","","","","","","",""
"null","","320062","SARL_v646shwf11","msl000173","fixation","","","img/fixation.png","null","","","prac","","","","","","","","","","","","","","","","","","","",""
"77380","","397445","SARL_v646shwf11","msl000173","","","","","","","","prac","","","","","","","","","","","","","","","","","","","",""
"958","","398409","SARL_v646shwf11","msl000173","rlPractice","","","img/black_2bandit_a2.png","74","img/black_2bandit_a2.png","","prac","","","75","","","","","","","","","","","","","","","","",""
"null","","399164","SARL_v646shwf11","msl000173","feedback","","","img/boo_L_a.png","null","","na","prac","","","","","","","","","","","","","","","","","","","",""
"null","","399319","SARL_v646shwf11","msl000173","fixation","","","img/fixation.png","null","","","prac","","","","","","","","","","","","","","","","","","","",""
"741","","400065","SARL_v646shwf11","msl000173","rlPractice","","","img/black_2bandit_a2.png","75","img/black_2bandit_a2.png","","prac","","","75","","","","","","","","","","","","","","","","",""
"null","","400820","SARL_v646shwf11","msl000173","feedback","","","img/yay_R_a.png","null","","na","prac","","","","","","","","","","","","","","","","","","","",""
"null","","400976","SARL_v646shwf11","msl000173","fixation","","","img/fixation.png","null","","","prac","","","","","","","","","","","","","","","","","","","",""
"558","","401539","SARL_v646shwf11","msl000173","rlPractice","","","img/black_2bandit_a2.png","75","img/black_2bandit_a2.png","","prac","","","75","","","","","","","","","","","","","","","","",""
"null","","402295","SARL_v646shwf11","msl000173","feedback","","","img/yay_R_a.png","null","","na","prac","","","","","","","","","","","","","","","","","","","",""
"null","","402452","SARL_v646shwf11","msl000173","fixation","","","img/fixation.png","null","","","prac","","","","","","","","","","","","","","","","","","","",""
"507","","402964","SARL_v646shwf11","msl000173","rlPractice","","","img/black_2bandit_a2.png","75","img/black_2bandit_a2.png","","prac","","","75","","","","","","","","","","","","","","","","",""
"null","","403720","SARL_v646shwf11","msl000173","feedback","","","img/yay_R_a.png","null","","na","prac","","","","","","","","","","","","","","","","","","","",""
"null","","403876","SARL_v646shwf11","msl000173","fixation","","","img/fixation.png","null","","","prac","","","","","","","","","","","","","","","","","","","",""
"403","","404284","SARL_v646shwf11","msl000173","rlPractice","","","img/black_2bandit_a2.png","75","img/black_2bandit_a2.png","","prac","","","75","","","","","","","","","","","","","","","","",""
"null","","405041","SARL_v646shwf11","msl000173","feedback","","","img/yay_R_a.png","null","","na","prac","","","","","","","","","","","","","","","","","","","",""
"null","","405196","SARL_v646shwf11","msl000173","fixation","","","img/fixation.png","null","","","prac","","","","","","","","","","","","","","","","","","","",""
"371","","405572","SARL_v646shwf11","msl000173","rlPractice","","","img/black_2bandit_a2.png","75","img/black_2bandit_a2.png","","prac","","","75","","","","","","","","","","","","","","","","",""
"null","","406328","SARL_v646shwf11","msl000173","feedback","","","img/yay_R_a.png","null","","na","prac","","","","","","","","","","","","","","","","","","","",""
"null","","406484","SARL_v646shwf11","msl000173","fixation","","","img/fixation.png","null","","","prac","","","","","","","","","","","","","","","","","","","",""
"358","","406847","SARL_v646shwf11","msl000173","rlPractice","","","img/black_2bandit_a2.png","75","img/black_2bandit_a2.png","","prac","","","75","","","","","","","","","","","","","","","","",""
"null","","407602","SARL_v646shwf11","msl000173","feedback","","","img/yay_R_a.png","null","","na","prac","","","","","","","","","","","","","","","","","","","",""
"null","","407759","SARL_v646shwf11","msl000173","fixation","","","img/fixation.png","null","","","prac","","","","","","","","","","","","","","","","","","","",""
"29390","","437152","SARL_v646shwf11","msl000173","","","","","","","","prac","","","","","","","","","","","","","","","","","","","",""
"661","","437818","SARL_v646shwf11","msl000173","mixAttFreqPrac","","","img/orange_2bandit_a2.png","70","img/orange_2bandit_a2.png","70","prac","","","","","","","","","","","","","","","","","","","",""
"661","","437962","SARL_v646shwf11","msl000173","freqPrac_resp","","","img/orange_2bandit_a.png","70","img/orange_2bandit_a.png","70","prac","","","","","","","","","","","","","","","","","","","",""
"null","","438117","SARL_v646shwf11","msl000173","fixation","","","img/fixation.png","null","","","prac","","","","","","","","","","","","","","","","","","","",""
"350","","438472","SARL_v646shwf11","msl000173","mixAttInfreqPrac","","","img/green_2bandit_a2.png","68","img/green_2bandit_a2.png","68","prac","","","","","","","","","","","","","","","","","","","",""
"350","","438929","SARL_v646shwf11","msl000173","infreqPrac_resp","","","img/green_2bandit_a.png","68","img/orange_2bandit_a.png","68","prac","","","","","","","","","","","","","","","","","","","",""
"128","","439084","SARL_v646shwf11","msl000173","fixation","","","img/fixation.png","68","","","prac","","","","","","","","","","","","","","","","","","","",""
"723","","439811","SARL_v646shwf11","msl000173","mixAttInfreqPrac","","","img/green_2bandit_a2.png","68","img/green_2bandit_a2.png","68","prac","","","","","","","","","","","","","","","","","","","",""
"723","","439893","SARL_v646shwf11","msl000173","infreqPrac_resp","","","img/green_2bandit_a.png","68","img/orange_2bandit_a.png","68","prac","","","","","","","","","","","","","","","","","","","",""
"null","","440049","SARL_v646shwf11","msl000173","fixation","","","img/fixation.png","null","","","prac","","","","","","","","","","","","","","","","","","","",""
"343","","440397","SARL_v646shwf11","msl000173","mixAttInfreqPrac","","","img/green_2bandit_a2.png","68","img/green_2bandit_a2.png","68","prac","","","","","","","","","","","","","","","","","","","",""
"343","","440859","SARL_v646shwf11","msl000173","infreqPrac_resp","","","img/green_2bandit_a.png","68","img/orange_2bandit_a.png","68","prac","","","","","","","","","","","","","","","","","","","",""
"null","","441014","SARL_v646shwf11","msl000173","fixation","","","img/fixation.png","null","","","prac","","","","","","","","","","","","","","","","","","","",""
"280","","441300","SARL_v646shwf11","msl000173","mixAttFreqPrac","","","img/orange_2bandit_a2.png","68","img/orange_2bandit_a2.png","70","prac","","","","","","","","","","","","","","","","","","","",""
"280","","441825","SARL_v646shwf11","msl000173","freqPrac_resp","","","img/orange_2bandit_a.png","68","img/orange_2bandit_a.png","70","prac","","","","","","","","","","","","","","","","","","","",""
"null","","441979","SARL_v646shwf11","msl000173","fixation","","","img/fixation.png","null","","","prac","","","","","","","","","","","","","","","","","","","",""
"1021","","443005","SARL_v646shwf11","msl000173","mixRLPractice","","","img/black_2bandit_a2.png","75","img/black_2bandit_a2.png","","prac","","","","","","","","","","","","","","","","","","","",""
"null","","443761","SARL_v646shwf11","msl000173","feedback","","","img/yay_R_a.png","null","","na","prac","","","","","","","","","","","","","","","","","","","",""
"null","","444567","SARL_v646shwf11","msl000173","mixAttFreqPrac","","","img/orange_2bandit_a2.png","null","img/orange_2bandit_a2.png","70","prac","","","","","","","","","","","","","","","","","","","",""
"109","","444723","SARL_v646shwf11","msl000173","fixation","","","img/fixation.png","70","","","prac","","","","","","","","","","","","","","","","","","","",""
"476","","445204","SARL_v646shwf11","msl000173","mixAttInfreqPrac","","","img/green_2bandit_a2.png","68","img/green_2bandit_a2.png","68","prac","","","","","","","","","","","","","","","","","","","",""
"476","","445534","SARL_v646shwf11","msl000173","infreqPrac_resp","","","img/green_2bandit_a.png","68","img/orange_2bandit_a.png","68","prac","","","","","","","","","","","","","","","","","","","",""
"null","","445690","SARL_v646shwf11","msl000173","fixation","","","img/fixation.png","null","","","prac","","","","","","","","","","","","","","","","","","","",""
"376","","446071","SARL_v646shwf11","msl000173","mixAttFreqPrac","","","img/orange_2bandit_a2.png","70","img/orange_2bandit_a2.png","70","prac","","","","","","","","","","","","","","","","","","","",""
"376","","446500","SARL_v646shwf11","msl000173","freqPrac_resp","","","img/orange_2bandit_a.png","70","img/orange_2bandit_a.png","70","prac","","","","","","","","","","","","","","","","","","","",""
"null","","446656","SARL_v646shwf11","msl000173","fixation","","","img/fixation.png","null","","","prac","","","","","","","","","","","","","","","","","","","",""
"355","","447014","SARL_v646shwf11","msl000173","mixAttFreqPrac","","","img/orange_2bandit_a2.png","70","img/orange_2bandit_a2.png","70","prac","","","","","","","","","","","","","","","","","","","",""
"355","","447466","SARL_v646shwf11","msl000173","freqPrac_resp","","","img/orange_2bandit_a.png","70","img/orange_2bandit_a.png","70","prac","","","","","","","","","","","","","","","","","","","",""
"null","","447621","SARL_v646shwf11","msl000173","fixation","","","img/fixation.png","null","","","prac","","","","","","","","","","","","","","","","","","","",""
"291","","447917","SARL_v646shwf11","msl000173","mixAttInfreqPrac","","","img/green_2bandit_a2.png","70","img/green_2bandit_a2.png","68","prac","","","","","","","","","","","","","","","","","","","",""
"291","","448431","SARL_v646shwf11","msl000173","infreqPrac_resp","","","img/green_2bandit_a.png","70","img/orange_2bandit_a.png","68","prac","","","","","","","","","","","","","","","","","","","",""
"null","","448587","SARL_v646shwf11","msl000173","fixation","","","img/fixation.png","null","","","prac","","","","","","","","","","","","","","","","","","","",""
"515","","449107","SARL_v646shwf11","msl000173","mixRLPractice","","","img/black_2bandit_a2.png","75","img/black_2bandit_a2.png","","prac","","","","","","","","","","","","","","","","","","","",""
"null","","449862","SARL_v646shwf11","msl000173","feedback","","","img/boo_R_a.png","null","","na","prac","","","","","","","","","","","","","","","","","","","",""
"43185","","493053","SARL_v646shwf11","msl000173","","","","","","","","prac","","","","","","","","","","","","","","","","","","","",""
"720","","493778","SARL_v646shwf11","msl000173","freq","","","img/orange_2bandit_a2.png","68","","70","test","0","","","square","circle","1","1","1","1","0","","","","","","","","","",""
"null","","493864","SARL_v646shwf11","msl000173","freq_resp","","","img/orange_2bandit_a.png","68","img/orange_2bandit_a.png","70","test","","","","","","","","","1","","","","","","","","","","",""
"null","","494021","SARL_v646shwf11","msl000173","fixation","","","img/fixation.png","null","","","test","","","","","","","","","","","","","","","","","","","",""
"396","","494422","SARL_v646shwf11","msl000173","freq","","","img/orange_2bandit_a2.png","70","","70","test","1","","","square","circle","2","2","2","1","0.5","","","","","","","","","",""
"null","","494830","SARL_v646shwf11","msl000173","freq_resp","","","img/orange_2bandit_a.png","70","img/orange_2bandit_a.png","70","test","","","","","","","","","1","","","","","","","","","","",""
"null","","494986","SARL_v646shwf11","msl000173","fixation","","","img/fixation.png","null","","","test","","","","","","","","","","","","","","","","","","","",""
"312","","495303","SARL_v646shwf11","msl000173","freq","","","img/orange_2bandit_a2.png","70","","70","test","1","","","square","circle","3","3","3","1","0.6666666666666666","","","","","","","","","",""
"null","","495798","SARL_v646shwf11","msl000173","freq_resp","","","img/orange_2bandit_a.png","70","img/orange_2bandit_a.png","70","test","","","","","","","","","1","","","","","","","","","","",""
"null","","495954","SARL_v646shwf11","msl000173","fixation","","","img/fixation.png","null","","","test","","","","","","","","","","","","","","","","","","","",""
"287","","496246","SARL_v646shwf11","msl000173","freq","","","img/orange_2bandit_a2.png","70","","70","test","1","","","square","circle","4","4","4","1","0.75","","","","","","","","","",""
"null","","496766","SARL_v646shwf11","msl000173","freq_resp","","","img/orange_2bandit_a.png","70","img/orange_2bandit_a.png","70","test","","","","","","","","","1","","","","","","","","","","",""
"null","","496921","SARL_v646shwf11","msl000173","fixation","","","img/fixation.png","null","","","test","","","","","","","","","","","","","","","","","","","",""
"258","","497184","SARL_v646shwf11","msl000173","freq","","","img/orange_2bandit_a2.png","70","","70","test","1","","","square","circle","5","5","5","1","0.8","","","","","","","","","",""
"null","","497732","SARL_v646shwf11","msl000173","freq_resp","","","img/orange_2bandit_a.png","70","img/orange_2bandit_a.png","70","test","","","","","","","","","1","","","","","","","","","","",""
"null","","497888","SARL_v646shwf11","msl000173","fixation","","","img/fixation.png","null","","","test","","","","","","","","","","","","","","","","","","","",""
"286","","498178","SARL_v646shwf11","msl000173","freq","","","img/orange_2bandit_a2.png","70","","70","test","1","","","square","circle","6","6","6","1","0.8333333333333334","","","","","","","","","",""
"null","","498698","SARL_v646shwf11","msl000173","freq_resp","","","img/orange_2bandit_a.png","70","img/orange_2bandit_a.png","70","test","","","","","","","","","1","","","","","","","","","","",""
"null","","498854","SARL_v646shwf11","msl000173","fixation","","","img/fixation.png","null","","","test","","","","","","","","","","","","","","","","","","","",""
"248","","499106","SARL_v646shwf11","msl000173","freq","","","img/orange_2bandit_a2.png","70","","70","test","1","","","square","circle","7","7","7","1","0.8571428571428571","","","","","","","","","",""
"null","","499664","SARL_v646shwf11","msl000173","freq_resp","","","img/orange_2bandit_a.png","70","img/orange_2bandit_a.png","70","test","","","","","","","","","1","","","","","","","","","","",""
"null","","499820","SARL_v646shwf11","msl000173","fixation","","","img/fixation.png","null","","","test","","","","","","","","","","","","","","","","","","","",""
"265","","500090","SARL_v646shwf11","msl000173","freq","","","img/orange_2bandit_a2.png","70","","70","test","1","","","square","circle","8","8","8","1","0.875","","","","","","","","","",""
"null","","500630","SARL_v646shwf11","msl000173","freq_resp","","","img/orange_2bandit_a.png","70","img/orange_2bandit_a.png","70","test","","","","","","","","","1","","","","","","","","","","",""
"null","","500785","SARL_v646shwf11","msl000173","fixation","","","img/fixation.png","null","","","test","","","","","","","","","","","","","","","","","","","",""
"216","","501006","SARL_v646shwf11","msl000173","freq","","","img/orange_2bandit_a2.png","70","","70","test","1","","","square","circle","9","9","9","1","0.8888888888888888","","","","","","","","","",""
"null","","501596","SARL_v646shwf11","msl000173","freq_resp","","","img/orange_2bandit_a.png","70","img/orange_2bandit_a.png","70","test","","","","","","","","","1","","","","","","","","","","",""
"null","","501751","SARL_v646shwf11","msl000173","fixation","","","img/fixation.png","null","","","test","","","","","","","","","","","","","","","","","","","",""
"148","","501904","SARL_v646shwf11","msl000173","infreq","","","img/green_2bandit_a2.png","70","","68","test","0","","","square","circle","10","10","10","1","0.8","","","","","","","","","",""
"null","","502561","SARL_v646shwf11","msl000173","infreq_resp","","","img/green_2bandit_a.png","70","img/green_2bandit_a.png","68","test","","","","","","","","","1","","","","","","","","","","",""
"null","","502717","SARL_v646shwf11","msl000173","fixation","","","img/fixation.png","null","","","test","","","","","","","","","","","","","","","","","","","",""
"386","","503108","SARL_v646shwf11","msl000173","freq","","","img/orange_2bandit_a2.png","70","","70","test","1","","","square","circle","11","11","11","1","0.8181818181818182","","","","","","","","","",""
"null","","503527","SARL_v646shwf11","msl000173","freq_resp","","","img/orange_2bandit_a.png","70","img/orange_2bandit_a.png","70","test","","","","","","","","","1","","","","","","","","","","",""
"null","","503683","SARL_v646shwf11","msl000173","fixation","","","img/fixation.png","null","","","test","","","","","","","","","","","","","","","","","","","",""
"318","","504007","SARL_v646shwf11","msl000173","freq","","","img/orange_2bandit_a2.png","70","","70","test","1","","","square","circle","12","12","12","1","0.8333333333333334","","","","","","","","","",""
"null","","504495","SARL_v646shwf11","msl000173","freq_resp","","","img/orange_2bandit_a.png","70","img/orange_2bandit_a.png","70","test","","","","","","","","","1","","","","","","","","","","",""
"null","","504651","SARL_v646shwf11","msl000173","fixation","","","img/fixation.png","null","","","test","","","","","","","","","","","","","","","","","","","",""
"286","","504943","SARL_v646shwf11","msl000173","freq","","","img/orange_2bandit_a2.png","70","","70","test","1","","","square","circle","13","13","13","1","0.8461538461538461","","","","","","","","","",""
"null","","505463","SARL_v646shwf11","msl000173","freq_resp","","","img/orange_2bandit_a.png","70","img/orange_2bandit_a.png","70","test","","","","","","","","","1","","","","","","","","","","",""
"null","","505620","SARL_v646shwf11","msl000173","fixation","","","img/fixation.png","null","","","test","","","","","","","","","","","","","","","","","","","",""
"274","","505899","SARL_v646shwf11","msl000173","freq","","","img/orange_2bandit_a2.png","70","","70","test","1","","","square","circle","14","14","14","1","0.8571428571428571","","","","","","","","","",""
"null","","506430","SARL_v646shwf11","msl000173","freq_resp","","","img/orange_2bandit_a.png","70","img/orange_2bandit_a.png","70","test","","","","","","","","","1","","","","","","","","","","",""
"null","","506586","SARL_v646shwf11","msl000173","fixation","","","img/fixation.png","null","","","test","","","","","","","","","","","","","","","","","","","",""
"299","","506890","SARL_v646shwf11","msl000173","freq","","","img/orange_2bandit_a2.png","70","","70","test","1","","","square","circle","15","15","15","1","0.8666666666666667","","","","","","","","","",""
"null","","507397","SARL_v646shwf11","msl000173","freq_resp","","","img/orange_2bandit_a.png","70","img/orange_2bandit_a.png","70","test","","","","","","","","","1","","","","","","","","","","",""
"null","","507552","SARL_v646shwf11","msl000173","fixation","","","img/fixation.png","null","","","test","","","","","","","","","","","","","","","","","","","",""
"274","","507831","SARL_v646shwf11","msl000173","freq","","","img/orange_2bandit_a2.png","70","","70","test","1","","","square","circle","16","16","16","1","0.875","","","","","","","","","",""
"null","","508364","SARL_v646shwf11","msl000173","freq_resp","","","img/orange_2bandit_a.png","70","img/orange_2bandit_a.png","70","test","","","","","","","","","1","","","","","","","","","","",""
"null","","508520","SARL_v646shwf11","msl000173","fixation","","","img/fixation.png","null","","","test","","","","","","","","","","","","","","","","","","","",""
"296","","508821","SARL_v646shwf11","msl000173","freq","","","img/orange_2bandit_a2.png","70","","70","test","1","","","square","circle","17","17","17","1","0.8823529411764706","","","","","","","","","",""
"null","","509331","SARL_v646shwf11","msl000173","freq_resp","","","img/orange_2bandit_a.png","70","img/orange_2bandit_a.png","70","test","","","","","","","","","1","","","","","","","","","","",""
"null","","509487","SARL_v646shwf11","msl000173","fixation","","","img/fixation.png","null","","","test","","","","","","","","","","","","","","","","","","","",""
"358","","509850","SARL_v646shwf11","msl000173","freq","","","img/orange_2bandit_a2.png","70","","70","test","1","","","square","circle","18","18","18","1","0.8888888888888888","","","","","","","","","",""
"null","","510298","SARL_v646shwf11","msl000173","freq_resp","","","img/orange_2bandit_a.png","70","img/orange_2bandit_a.png","70","test","","","","","","","","","1","","","","","","","","","","",""
"null","","510453","SARL_v646shwf11","msl000173","fixation","","","img/fixation.png","null","","","test","","","","","","","","","","","","","","","","","","","",""
"450","","510909","SARL_v646shwf11","msl000173","infreq","","","img/green_2bandit_a2.png","68","","68","test","1","","","square","circle","19","19","19","1","0.8947368421052632","","","","","","","","","",""
"null","","511264","SARL_v646shwf11","msl000173","infreq_resp","","","img/green_2bandit_a.png","68","img/green_2bandit_a.png","68","test","","","","","","","","","1","","","","","","","","","","",""
"null","","511419","SARL_v646shwf11","msl000173","fixation","","","img/fixation.png","null","","","test","","","","","","","","","","","","","","","","","","","",""
"359","","511782","SARL_v646shwf11","msl000173","freq","","","img/orange_2bandit_a2.png","70","","70","test","1","","","square","circle","20","20","20","1","0.9","","","","","","","","","",""
"null","","512230","SARL_v646shwf11","msl000173","freq_resp","","","img/orange_2bandit_a.png","70","img/orange_2bandit_a.png","70","test","","","","","","","","","1","","","","","","","","","","",""
"null","","512385","SARL_v646shwf11","msl000173","fixation","","","img/fixation.png","null","","","test","","","","","","","","","","","","","","","","","","","",""
"374","","512764","SARL_v646shwf11","msl000173","freq","","","img/orange_2bandit_a2.png","70","","70","test","1","","","square","circle","21","21","21","1","0.9047619047619048","","","","","","","","","",""
"null","","513195","SARL_v646shwf11","msl000173","freq_resp","","","img/orange_2bandit_a.png","70","img/orange_2bandit_a.png","70","test","","","","","","","","","1","","","","","","","","","","",""
"null","","513350","SARL_v646shwf11","msl000173","fixation","","","img/fixation.png","null","","","test","","","","","","","","","","","","","","","","","","","",""
"316","","513672","SARL_v646shwf11","msl000173","freq","","","img/orange_2bandit_a2.png","70","","70","test","1","","","square","circle","22","22","22","1","0.9090909090909091","","","","","","","","","",""
"null","","514161","SARL_v646shwf11","msl000173","freq_resp","","","img/orange_2bandit_a.png","70","img/orange_2bandit_a.png","70","test","","","","","","","","","1","","","","","","","","","","",""
"null","","514317","SARL_v646shwf11","msl000173","fixation","","","img/fixation.png","null","","","test","","","","","","","","","","","","","","","","","","","",""
"312","","514634","SARL_v646shwf11","msl000173","freq","","","img/orange_2bandit_a2.png","70","","70","test","1","","","square","circle","23","23","23","1","0.9130434782608695","","","","","","","","","",""
"null","","515129","SARL_v646shwf11","msl000173","freq_resp","","","img/orange_2bandit_a.png","70","img/orange_2bandit_a.png","70","test","","","","","","","","","1","","","","","","","","","","",""
"null","","515285","SARL_v646shwf11","msl000173","fixation","","","img/fixation.png","null","","","test","","","","","","","","","","","","","","","","","","","",""
"650","","515940","SARL_v646shwf11","msl000173","rl","","","img/black_2bandit_a2.png","74","","0","test","","","1","square","circle","24","","0","1","","74","0.2","0.8","0.16366206639561964","0.8","0.2","0.8","square","1","0"
"null","","516697","SARL_v646shwf11","msl000173","feedback","","","img/yay_L_a.png","null","","na","test","","","","","","","","","1","","74","0.2","0.8","","","","0.8","","1",""
"null","","517504","SARL_v646shwf11","msl000173","freq","","","img/orange_2bandit_a2.png","null","","70","test","0","","","square","circle","25","24","1","2","0.875","","","","","","","","","",""
"null","","517660","SARL_v646shwf11","msl000173","fixation","","","img/fixation.png","null","","","test","","","","","","","","","","","","","","","","","","","",""
"75","","517739","SARL_v646shwf11","msl000173","freq","","","img/orange_2bandit_a2.png","70","","70","test","1","","","square","circle","26","25","2","2","0.88","","","","","","","","","",""
"null","","518470","SARL_v646shwf11","msl000173","freq_resp","","","img/orange_2bandit_a.png","70","img/orange_2bandit_a.png","70","test","","","","","","","","","2","","","","","","","","","","",""
"null","","518625","SARL_v646shwf11","msl000173","fixation","","","img/fixation.png","null","","","test","","","","","","","","","","","","","","","","","","","",""
"null","","519431","SARL_v646shwf11","msl000173","freq","","","img/orange_2bandit_a2.png","null","","70","test","0","","","square","circle","27","26","3","2","0.8461538461538461","","","","","","","","","",""
"null","","519586","SARL_v646shwf11","msl000173","fixation","","","img/fixation.png","null","","","test","","","","","","","","","","","","","","","","","","","",""
"26","","519617","SARL_v646shwf11","msl000173","freq","","","img/orange_2bandit_a2.png","70","","70","test","1","","","square","circle","28","27","4","2","0.8518518518518519","","","","","","","","","",""
"null","","520397","SARL_v646shwf11","msl000173","freq_resp","","","img/orange_2bandit_a.png","70","img/orange_2bandit_a.png","70","test","","","","","","","","","2","","","","","","","","","","",""
"null","","520553","SARL_v646shwf11","msl000173","fixation","","","img/fixation.png","null","","","test","","","","","","","","","","","","","","","","","","","",""
"119","","520676","SARL_v646shwf11","msl000173","freq","","","img/orange_2bandit_a2.png","70","","70","test","1","","","square","circle","29","28","5","2","0.8571428571428571","","","","","","","","","",""
"null","","521363","SARL_v646shwf11","msl000173","freq_resp","","","img/orange_2bandit_a.png","70","img/orange_2bandit_a.png","70","test","","","","","","","","","2","","","","","","","","","","",""
"null","","521517","SARL_v646shwf11","msl000173","fixation","","","img/fixation.png","null","","","test","","","","","","","","","","","","","","","","","","","",""
"175","","521698","SARL_v646shwf11","msl000173","freq","","","img/orange_2bandit_a2.png","70","","70","test","1","","","square","circle","30","29","6","2","0.8620689655172413","","","","","","","","","",""
"null","","522329","SARL_v646shwf11","msl000173","freq_resp","","","img/orange_2bandit_a.png","70","img/orange_2bandit_a.png","70","test","","","","","","","","","2","","","","","","","","","","",""
"null","","522484","SARL_v646shwf11","msl000173","fixation","","","img/fixation.png","null","","","test","","","","","","","","","","","","","","","","","","","",""
"190","","522678","SARL_v646shwf11","msl000173","freq","","","img/orange_2bandit_a2.png","70","","70","test","1","","","square","circle","31","30","7","2","0.8666666666666667","","","","","","","","","",""
"null","","523294","SARL_v646shwf11","msl000173","freq_resp","","","img/orange_2bandit_a.png","70","img/orange_2bandit_a.png","70","test","","","","","","","","","2","","","","","","","","","","",""
"null","","523451","SARL_v646shwf11","msl000173","fixation","","","img/fixation.png","null","","","test","","","","","","","","","","","","","","","","","","","",""
"150","","523604","SARL_v646shwf11","msl000173","infreq","","","img/green_2bandit_a2.png","70","","68","test","0","","","square","circle","32","31","8","2","0.8387096774193549","","","","","","","","","",""
"null","","524260","SARL_v646shwf11","msl000173","infreq_resp","","","img/green_2bandit_a.png","70","img/green_2bandit_a.png","68","test","","","","","","","","","2","","","","","","","","","","",""
"null","","524415","SARL_v646shwf11","msl000173","fixation","","","img/fixation.png","null","","","test","","","","","","","","","","","","","","","","","","","",""
"283","","524702","SARL_v646shwf11","msl000173","freq","","","img/orange_2bandit_a2.png","70","","70","test","1","","","square","circle","33","32","9","2","0.84375","","","","","","","","","",""
"null","","525225","SARL_v646shwf11","msl000173","freq_resp","","","img/orange_2bandit_a.png","70","img/orange_2bandit_a.png","70","test","","","","","","","","","2","","","","","","","","","","",""
"null","","525381","SARL_v646shwf11","msl000173","fixation","","","img/fixation.png","null","","","test","","","","","","","","","","","","","","","","","","","",""
"240","","525627","SARL_v646shwf11","msl000173","freq","","","img/orange_2bandit_a2.png","70","","70","test","1","","","square","circle","34","33","10","2","0.8484848484848485","","","","","","","","","",""
"null","","526193","SARL_v646shwf11","msl000173","freq_resp","","","img/orange_2bandit_a.png","70","img/orange_2bandit_a.png","70","test","","","","","","","","","2","","","","","","","","","","",""
"null","","526350","SARL_v646shwf11","msl000173","fixation","","","img/fixation.png","null","","","test","","","","","","","","","","","","","","","","","","","",""
"198","","526553","SARL_v646shwf11","msl000173","freq","","","img/orange_2bandit_a2.png","70","","70","test","1","","","square","circle","35","34","11","2","0.8529411764705882","","","","","","","","","",""
"null","","527161","SARL_v646shwf11","msl000173","freq_resp","","","img/orange_2bandit_a.png","70","img/orange_2bandit_a.png","70","test","","","","","","","","","2","","","","","","","","","","",""
"null","","527315","SARL_v646shwf11","msl000173","fixation","","","img/fixation.png","null","","","test","","","","","","","","","","","","","","","","","","","",""
"202","","527522","SARL_v646shwf11","msl000173","freq","","","img/orange_2bandit_a2.png","70","","70","test","1","","","square","circle","36","35","12","2","0.8571428571428571","","","","","","","","","",""
"null","","528126","SARL_v646shwf11","msl000173","freq_resp","","","img/orange_2bandit_a.png","70","img/orange_2bandit_a.png","70","test","","","","","","","","","2","","","","","","","","","","",""
"null","","528282","SARL_v646shwf11","msl000173","fixation","","","img/fixation.png","null","","","test","","","","","","","","","","","","","","","","","","","",""
"262","","528549","SARL_v646shwf11","msl000173","freq","","","img/orange_2bandit_a2.png","70","","70","test","1","","","square","circle","37","36","13","2","0.8611111111111112","","","","","","","","","",""
"null","","529093","SARL_v646shwf11","msl000173","freq_resp","","","img/orange_2bandit_a.png","70","img/orange_2bandit_a.png","70","test","","","","","","","","","2","","","","","","","","","","",""
"null","","529248","SARL_v646shwf11","msl000173","fixation","","","img/fixation.png","null","","","test","","","","","","","","","","","","","","","","","","","",""
"184","","529436","SARL_v646shwf11","msl000173","freq","","","img/orange_2bandit_a2.png","70","","70","test","1","","","square","circle","38","37","14","2","0.8648648648648649","","","","","","","","","",""
"null","","530058","SARL_v646shwf11","msl000173","freq_resp","","","img/orange_2bandit_a.png","70","img/orange_2bandit_a.png","70","test","","","","","","","","","2","","","","","","","","","","",""
"null","","530212","SARL_v646shwf11","msl000173","fixation","","","img/fixation.png","null","","","test","","","","","","","","","","","","","","","","","","","",""
"223","","530441","SARL_v646shwf11","msl000173","freq","","","img/orange_2bandit_a2.png","70","","70","test","1","","","square","circle","39","38","15","2","0.868421052631579","","","","","","","","","",""
"null","","531024","SARL_v646shwf11","msl000173","freq_resp","","","img/orange_2bandit_a.png","70","img/orange_2bandit_a.png","70","test","","","","","","","","","2","","","","","","","","","","",""
"null","","531180","SARL_v646shwf11","msl000173","fixation","","","img/fixation.png","null","","","test","","","","","","","","","","","","","","","","","","","",""
"295","","531480","SARL_v646shwf11","msl000173","freq","","","img/orange_2bandit_a2.png","70","","70","test","1","","","square","circle","40","39","16","2","0.8717948717948718","","","","","","","","","",""
"null","","531990","SARL_v646shwf11","msl000173","freq_resp","","","img/orange_2bandit_a.png","70","img/orange_2bandit_a.png","70","test","","","","","","","","","2","","","","","","","","","","",""
"null","","532147","SARL_v646shwf11","msl000173","fixation","","","img/fixation.png","null","","","test","","","","","","","","","","","","","","","","","","","",""
"215","","532367","SARL_v646shwf11","msl000173","freq","","","img/orange_2bandit_a2.png","70","","70","test","1","","","square","circle","41","40","17","2","0.875","","","","","","","","","",""
"null","","532958","SARL_v646shwf11","msl000173","freq_resp","","","img/orange_2bandit_a.png","70","img/orange_2bandit_a.png","70","test","","","","","","","","","2","","","","","","","","","","",""
"null","","533114","SARL_v646shwf11","msl000173","fixation","","","img/fixation.png","null","","","test","","","","","","","","","","","","","","","","","","","",""
"337","","533456","SARL_v646shwf11","msl000173","freq","","","img/orange_2bandit_a2.png","70","","70","test","1","","","square","circle","42","41","18","2","0.8780487804878049","","","","","","","","","",""
"null","","533925","SARL_v646shwf11","msl000173","freq_resp","","","img/orange_2bandit_a.png","70","img/orange_2bandit_a.png","70","test","","","","","","","","","2","","","","","","","","","","",""
"null","","534080","SARL_v646shwf11","msl000173","fixation","","","img/fixation.png","null","","","test","","","","","","","","","","","","","","","","","","","",""
"329","","534413","SARL_v646shwf11","msl000173","freq","","","img/orange_2bandit_a2.png","70","","70","test","1","","","square","circle","43","42","19","2","0.8809523809523809","","","","","","","","","",""
"null","","534889","SARL_v646shwf11","msl000173","freq_resp","","","img/orange_2bandit_a.png","70","img/orange_2bandit_a.png","70","test","","","","","","","","","2","","","","","","","","","","",""
"null","","535044","SARL_v646shwf11","msl000173","fixation","","","img/fixation.png","null","","","test","","","","","","","","","","","","","","","","","","","",""
"284","","535332","SARL_v646shwf11","msl000173","freq","","","img/orange_2bandit_a2.png","70","","70","test","1","","","square","circle","44","43","20","2","0.8837209302325582","","","","","","","","","",""
"null","","535854","SARL_v646shwf11","msl000173","freq_resp","","","img/orange_2bandit_a.png","70","img/orange_2bandit_a.png","70","test","","","","","","","","","2","","","","","","","","","","",""
"null","","536009","SARL_v646shwf11","msl000173","fixation","","","img/fixation.png","null","","","test","","","","","","","","","","","","","","","","","","","",""
"431","","536446","SARL_v646shwf11","msl000173","infreq","","","img/green_2bandit_a2.png","68","","68","test","1","","","square","circle","45","44","21","2","0.8863636363636364","","","","","","","","","",""
"null","","536819","SARL_v646shwf11","msl000173","infreq_resp","","","img/green_2bandit_a.png","68","img/green_2bandit_a.png","68","test","","","","","","","","","2","","","","","","","","","","",""
"null","","536975","SARL_v646shwf11","msl000173","fixation","","","img/fixation.png","null","","","test","","","","","","","","","","","","","","","","","","","",""
"355","","537335","SARL_v646shwf11","msl000173","freq","","","img/orange_2bandit_a2.png","70","","70","test","1","","","square","circle","46","45","22","2","0.8888888888888888","","","","","","","","","",""
"null","","537784","SARL_v646shwf11","msl000173","freq_resp","","","img/orange_2bandit_a.png","70","img/orange_2bandit_a.png","70","test","","","","","","","","","2","","","","","","","","","","",""
"null","","537940","SARL_v646shwf11","msl000173","fixation","","","img/fixation.png","null","","","test","","","","","","","","","","","","","","","","","","","",""
"587","","538532","SARL_v646shwf11","msl000173","rl","","","img/black_2bandit_a2.png","75","","0","test","","","0","square","circle","47","","0","2","","75","0.2","0.8","0.40315095998037653","0.8","0.2","0.2","circle","2","0"
"null","","539288","SARL_v646shwf11","msl000173","feedback","","","img/boo_R_a.png","null","","na","test","","","","","","","","","2","","75","0.2","0.8","","","","0.2","","2",""
"726","","540018","SARL_v646shwf11","msl000173","freq","","","img/orange_2bandit_a2.png","70","","70","test","1","","","square","circle","48","46","1","3","0.8913043478260869","","","","","","","","","",""
"null","","540098","SARL_v646shwf11","msl000173","freq_resp","","","img/orange_2bandit_a.png","70","img/orange_2bandit_a.png","70","test","","","","","","","","","3","","","","","","","","","","",""
"null","","540253","SARL_v646shwf11","msl000173","fixation","","","img/fixation.png","null","","","test","","","","","","","","","","","","","","","","","","","",""
"361","","540619","SARL_v646shwf11","msl000173","freq","","","img/orange_2bandit_a2.png","70","","70","test","1","","","square","circle","49","47","2","3","0.8936170212765957","","","","","","","","","",""
"null","","541064","SARL_v646shwf11","msl000173","freq_resp","","","img/orange_2bandit_a.png","70","img/orange_2bandit_a.png","70","test","","","","","","","","","3","","","","","","","","","","",""
"null","","541219","SARL_v646shwf11","msl000173","fixation","","","img/fixation.png","null","","","test","","","","","","","","","","","","","","","","","","","",""
"328","","541552","SARL_v646shwf11","msl000173","freq","","","img/orange_2bandit_a2.png","70","","70","test","1","","","square","circle","50","48","3","3","0.8958333333333334","","","","","","","","","",""
"null","","542030","SARL_v646shwf11","msl000173","freq_resp","","","img/orange_2bandit_a.png","70","img/orange_2bandit_a.png","70","test","","","","","","","","","3","","","","","","","","","","",""
"null","","542186","SARL_v646shwf11","msl000173","fixation","","","img/fixation.png","null","","","test","","","","","","","","","","","","","","","","","","","",""
"615","","542806","SARL_v646shwf11","msl000173","infreq","","","img/green_2bandit_a2.png","68","","68","test","1","","","square","circle","51","49","4","3","0.8979591836734694","","","","","","","","","",""
"null","","542997","SARL_v646shwf11","msl000173","infreq_resp","","","img/green_2bandit_a.png","68","img/green_2bandit_a.png","68","test","","","","","","","","","3","","","","","","","","","","",""
"null","","543152","SARL_v646shwf11","msl000173","fixation","","","img/fixation.png","null","","","test","","","","","","","","","","","","","","","","","","","",""
"445","","543603","SARL_v646shwf11","msl000173","freq","","","img/orange_2bandit_a2.png","70","","70","test","1","","","square","circle","52","50","5","3","0.9","","","","","","","","","",""
"null","","543964","SARL_v646shwf11","msl000173","freq_resp","","","img/orange_2bandit_a.png","70","img/orange_2bandit_a.png","70","test","","","","","","","","","3","","","","","","","","","","",""
"null","","544118","SARL_v646shwf11","msl000173","fixation","","","img/fixation.png","null","","","test","","","","","","","","","","","","","","","","","","","",""
"329","","544452","SARL_v646shwf11","msl000173","freq","","","img/orange_2bandit_a2.png","70","","70","test","1","","","square","circle","53","51","6","3","0.9019607843137255","","","","","","","","","",""
"null","","544928","SARL_v646shwf11","msl000173","freq_resp","","","img/orange_2bandit_a.png","70","img/orange_2bandit_a.png","70","test","","","","","","","","","3","","","","","","","","","","",""
"null","","545084","SARL_v646shwf11","msl000173","fixation","","","img/fixation.png","null","","","test","","","","","","","","","","","","","","","","","","","",""
"166","","545256","SARL_v646shwf11","msl000173","freq","","","img/orange_2bandit_a2.png","70","","70","test","1","","","square","circle","54","52","7","3","0.9038461538461539","","","","","","","","","",""
"null","","545895","SARL_v646shwf11","msl000173","freq_resp","","","img/orange_2bandit_a.png","70","img/orange_2bandit_a.png","70","test","","","","","","","","","3","","","","","","","","","","",""
"null","","546052","SARL_v646shwf11","msl000173","fixation","","","img/fixation.png","null","","","test","","","","","","","","","","","","","","","","","","","",""
"341","","546398","SARL_v646shwf11","msl000173","freq","","","img/orange_2bandit_a2.png","70","","70","test","1","","","square","circle","55","53","8","3","0.9056603773584906","","","","","","","","","",""
"null","","546862","SARL_v646shwf11","msl000173","freq_resp","","","img/orange_2bandit_a.png","70","img/orange_2bandit_a.png","70","test","","","","","","","","","3","","","","","","","","","","",""
"null","","547018","SARL_v646shwf11","msl000173","fixation","","","img/fixation.png","null","","","test","","","","","","","","","","","","","","","","","","","",""
"436","","547459","SARL_v646shwf11","msl000173","infreq","","","img/green_2bandit_a2.png","68","","68","test","1","","","square","circle","56","54","9","3","0.9074074074074074","","","","","","","","","",""
"null","","547829","SARL_v646shwf11","msl000173","infreq_resp","","","img/green_2bandit_a.png","68","img/green_2bandit_a.png","68","test","","","","","","","","","3","","","","","","","","","","",""
"null","","547983","SARL_v646shwf11","msl000173","fixation","","","img/fixation.png","null","","","test","","","","","","","","","","","","","","","","","","","",""
"265","","548253","SARL_v646shwf11","msl000173","freq","","","img/orange_2bandit_a2.png","70","","70","test","1","","","square","circle","57","55","10","3","0.9090909090909091","","","","","","","","","",""
"null","","548795","SARL_v646shwf11","msl000173","freq_resp","","","img/orange_2bandit_a.png","70","img/orange_2bandit_a.png","70","test","","","","","","","","","3","","","","","","","","","","",""
"null","","548951","SARL_v646shwf11","msl000173","fixation","","","img/fixation.png","null","","","test","","","","","","","","","","","","","","","","","","","",""
"312","","549268","SARL_v646shwf11","msl000173","freq","","","img/orange_2bandit_a2.png","70","","70","test","1","","","square","circle","58","56","11","3","0.9107142857142857","","","","","","","","","",""
"null","","549763","SARL_v646shwf11","msl000173","freq_resp","","","img/orange_2bandit_a.png","70","img/orange_2bandit_a.png","70","test","","","","","","","","","3","","","","","","","","","","",""
"null","","549919","SARL_v646shwf11","msl000173","fixation","","","img/fixation.png","null","","","test","","","","","","","","","","","","","","","","","","","",""
"354","","550277","SARL_v646shwf11","msl000173","freq","","","img/orange_2bandit_a2.png","70","","70","test","1","","","square","circle","59","57","12","3","0.9122807017543859","","","","","","","","","",""
"null","","550730","SARL_v646shwf11","msl000173","freq_resp","","","img/orange_2bandit_a.png","70","img/orange_2bandit_a.png","70","test","","","","","","","","","3","","","","","","","","","","",""
"null","","550885","SARL_v646shwf11","msl000173","fixation","","","img/fixation.png","null","","","test","","","","","","","","","","","","","","","","","","","",""
"340","","551229","SARL_v646shwf11","msl000173","freq","","","img/orange_2bandit_a2.png","70","","70","test","1","","","square","circle","60","58","13","3","0.9137931034482759","","","","","","","","","",""
"null","","551695","SARL_v646shwf11","msl000173","freq_resp","","","img/orange_2bandit_a.png","70","img/orange_2bandit_a.png","70","test","","","","","","","","","3","","","","","","","","","","",""
"null","","551851","SARL_v646shwf11","msl000173","fixation","","","img/fixation.png","null","","","test","","","","","","","","","","","","","","","","","","","",""
"275","","552131","SARL_v646shwf11","msl000173","freq","","","img/orange_2bandit_a2.png","70","","70","test","1","","","square","circle","61","59","14","3","0.9152542372881356","","","","","","","","","",""
"null","","552662","SARL_v646shwf11","msl000173","freq_resp","","","img/orange_2bandit_a.png","70","img/orange_2bandit_a.png","70","test","","","","","","","","","3","","","","","","","","","","",""
"null","","552818","SARL_v646shwf11","msl000173","fixation","","","img/fixation.png","null","","","test","","","","","","","","","","","","","","","","","","","",""
"287","","553109","SARL_v646shwf11","msl000173","freq","","","img/orange_2bandit_a2.png","70","","70","test","1","","","square","circle","62","60","15","3","0.9166666666666666","","","","","","","","","",""
"null","","553627","SARL_v646shwf11","msl000173","freq_resp","","","img/orange_2bandit_a.png","70","img/orange_2bandit_a.png","70","test","","","","","","","","","3","","","","","","","","","","",""
"null","","553784","SARL_v646shwf11","msl000173","fixation","","","img/fixation.png","null","","","test","","","","","","","","","","","","","","","","","","","",""
"399","","554187","SARL_v646shwf11","msl000173","freq","","","img/orange_2bandit_a2.png","70","","70","test","1","","","square","circle","63","61","16","3","0.9180327868852459","","","","","","","","","",""
"null","","554594","SARL_v646shwf11","msl000173","freq_resp","","","img/orange_2bandit_a.png","70","img/orange_2bandit_a.png","70","test","","","","","","","","","3","","","","","","","","","","",""
"null","","554749","SARL_v646shwf11","msl000173","fixation","","","img/fixation.png","null","","","test","","","","","","","","","","","","","","","","","","","",""
"298","","555051","SARL_v646shwf11","msl000173","freq","","","img/orange_2bandit_a2.png","70","","70","test","1","","","square","circle","64","62","17","3","0.9193548387096774","","","","","","","","","",""
"null","","555558","SARL_v646shwf11","msl000173","freq_resp","","","img/orange_2bandit_a.png","70","img/orange_2bandit_a.png","70","test","","","","","","","","","3","","","","","","","","","","",""
"null","","555714","SARL_v646shwf11","msl000173","fixation","","","img/fixation.png","null","","","test","","","","","","","","","","","","","","","","","","","",""
"321","","556040","SARL_v646shwf11","msl000173","freq","","","img/orange_2bandit_a2.png","70","","70","test","1","","","square","circle","65","63","18","3","0.9206349206349206","","","","","","","","","",""
"null","","556525","SARL_v646shwf11","msl000173","freq_resp","","","img/orange_2bandit_a.png","70","img/orange_2bandit_a.png","70","test","","","","","","","","","3","","","","","","","","","","",""
"null","","556680","SARL_v646shwf11","msl000173","fixation","","","img/fixation.png","null","","","test","","","","","","","","","","","","","","","","","","","",""
"342","","557028","SARL_v646shwf11","msl000173","freq","","","img/orange_2bandit_a2.png","70","","70","test","1","","","square","circle","66","64","19","3","0.921875","","","","","","","","","",""
"null","","557492","SARL_v646shwf11","msl000173","freq_resp","","","img/orange_2bandit_a.png","70","img/orange_2bandit_a.png","70","test","","","","","","","","","3","","","","","","","","","","",""
"null","","557647","SARL_v646shwf11","msl000173","fixation","","","img/fixation.png","null","","","test","","","","","","","","","","","","","","","","","","","",""
"343","","557995","SARL_v646shwf11","msl000173","freq","","","img/orange_2bandit_a2.png","70","","70","test","1","","","square","circle","67","65","20","3","0.9230769230769231","","","","","","","","","",""
"null","","558458","SARL_v646shwf11","msl000173","freq_resp","","","img/orange_2bandit_a.png","70","img/orange_2bandit_a.png","70","test","","","","","","","","","3","","","","","","","","","","",""
"null","","558614","SARL_v646shwf11","msl000173","fixation","","","img/fixation.png","null","","","test","","","","","","","","","","","","","","","","","","","",""
"339","","558959","SARL_v646shwf11","msl000173","freq","","","img/orange_2bandit_a2.png","70","","70","test","1","","","square","circle","68","66","21","3","0.9242424242424242","","","","","","","","","",""
"null","","559426","SARL_v646shwf11","msl000173","freq_resp","","","img/orange_2bandit_a.png","70","img/orange_2bandit_a.png","70","test","","","","","","","","","3","","","","","","","","","","",""
"null","","559583","SARL_v646shwf11","msl000173","fixation","","","img/fixation.png","null","","","test","","","","","","","","","","","","","","","","","","","",""
"705","","560293","SARL_v646shwf11","msl000173","rl","","","img/black_2bandit_a2.png","74","","0","test","","","1","square","circle","69","","0","3","","74","0.2","0.8","0.1435527987148918","0.8","0.2","0.8","square","3","0"
"null","","561050","SARL_v646shwf11","msl000173","feedback","","","img/yay_L_a.png","null","","na","test","","","","","","","","","3","","74","0.2","0.8","","","","0.8","","3",""
"375","","561428","SARL_v646shwf11","msl000173","freq","","","img/orange_2bandit_a2.png","70","","70","test","1","","","square","circle","70","67","1","4","0.9253731343283582","","","","","","","","","",""
"null","","561858","SARL_v646shwf11","msl000173","freq_resp","","","img/orange_2bandit_a.png","70","img/orange_2bandit_a.png","70","test","","","","","","","","","4","","","","","","","","","","",""
"null","","562013","SARL_v646shwf11","msl000173","fixation","","","img/fixation.png","null","","","test","","","","","","","","","","","","","","","","","","","",""
"286","","562303","SARL_v646shwf11","msl000173","freq","","","img/orange_2bandit_a2.png","70","","70","test","1","","","square","circle","71","68","2","4","0.9264705882352942","","","","","","","","","",""
"null","","562824","SARL_v646shwf11","msl000173","freq_resp","","","img/orange_2bandit_a.png","70","img/orange_2bandit_a.png","70","test","","","","","","","","","4","","","","","","","","","","",""
"null","","562979","SARL_v646shwf11","msl000173","fixation","","","img/fixation.png","null","","","test","","","","","","","","","","","","","","","","","","","",""
"123","","563106","SARL_v646shwf11","msl000173","freq","","","img/orange_2bandit_a2.png","70","","70","test","1","","","square","circle","72","69","3","4","0.927536231884058","","","","","","","","","",""
"null","","563789","SARL_v646shwf11","msl000173","freq_resp","","","img/orange_2bandit_a.png","70","img/orange_2bandit_a.png","70","test","","","","","","","","","4","","","","","","","","","","",""
"null","","563944","SARL_v646shwf11","msl000173","fixation","","","img/fixation.png","null","","","test","","","","","","","","","","","","","","","","","","","",""
"122","","564071","SARL_v646shwf11","msl000173","infreq","","","img/green_2bandit_a2.png","70","","68","test","0","","","square","circle","73","70","4","4","0.9142857142857143","","","","","","","","","",""
"null","","564755","SARL_v646shwf11","msl000173","infreq_resp","","","img/green_2bandit_a.png","70","img/green_2bandit_a.png","68","test","","","","","","","","","4","","","","","","","","","","",""
"null","","564911","SARL_v646shwf11","msl000173","fixation","","","img/fixation.png","null","","","test","","","","","","","","","","","","","","","","","","","",""
"13","","564928","SARL_v646shwf11","msl000173","freq","","","img/orange_2bandit_a2.png","68","","70","test","0","","","square","circle","74","71","5","4","0.9014084507042254","","","","","","","","","",""
"null","","565721","SARL_v646shwf11","msl000173","freq_resp","","","img/orange_2bandit_a.png","68","img/orange_2bandit_a.png","70","test","","","","","","","","","4","","","","","","","","","","",""
"null","","565876","SARL_v646shwf11","msl000173","fixation","","","img/fixation.png","null","","","test","","","","","","","","","","","","","","","","","","","",""
"381","","566262","SARL_v646shwf11","msl000173","infreq","","","img/green_2bandit_a2.png","70","","68","test","0","","","square","circle","75","72","6","4","0.8888888888888888","","","","","","","","","",""
"null","","566687","SARL_v646shwf11","msl000173","infreq_resp","","","img/green_2bandit_a.png","70","img/green_2bandit_a.png","68","test","","","","","","","","","4","","","","","","","","","","",""
"null","","566843","SARL_v646shwf11","msl000173","fixation","","","img/fixation.png","null","","","test","","","","","","","","","","","","","","","","","","","",""
"432","","567281","SARL_v646shwf11","msl000173","freq","","","img/orange_2bandit_a2.png","70","","70","test","1","","","square","circle","76","73","7","4","0.8904109589041096","","","","","","","","","",""
"null","","567654","SARL_v646shwf11","msl000173","freq_resp","","","img/orange_2bandit_a.png","70","img/orange_2bandit_a.png","70","test","","","","","","","","","4","","","","","","","","","","",""
"null","","567809","SARL_v646shwf11","msl000173","fixation","","","img/fixation.png","null","","","test","","","","","","","","","","","","","","","","","","","",""
"326","","568138","SARL_v646shwf11","msl000173","freq","","","img/orange_2bandit_a2.png","70","","70","test","1","","","square","circle","77","74","8","4","0.8918918918918919","","","","","","","","","",""
"null","","568618","SARL_v646shwf11","msl000173","freq_resp","","","img/orange_2bandit_a.png","70","img/orange_2bandit_a.png","70","test","","","","","","","","","4","","","","","","","","","","",""
"null","","568773","SARL_v646shwf11","msl000173","fixation","","","img/fixation.png","null","","","test","","","","","","","","","","","","","","","","","","","",""
"148","","568926","SARL_v646shwf11","msl000173","freq","","","img/orange_2bandit_a2.png","70","","70","test","1","","","square","circle","78","75","9","4","0.8933333333333333","","","","","","","","","",""
"null","","569583","SARL_v646shwf11","msl000173","freq_resp","","","img/orange_2bandit_a.png","70","img/orange_2bandit_a.png","70","test","","","","","","","","","4","","","","","","","","","","",""
"null","","569737","SARL_v646shwf11","msl000173","fixation","","","img/fixation.png","null","","","test","","","","","","","","","","","","","","","","","","","",""
"274","","570016","SARL_v646shwf11","msl000173","freq","","","img/orange_2bandit_a2.png","70","","70","test","1","","","square","circle","79","76","10","4","0.8947368421052632","","","","","","","","","",""
"null","","570547","SARL_v646shwf11","msl000173","freq_resp","","","img/orange_2bandit_a.png","70","img/orange_2bandit_a.png","70","test","","","","","","","","","4","","","","","","","","","","",""
"null","","570703","SARL_v646shwf11","msl000173","fixation","","","img/fixation.png","null","","","test","","","","","","","","","","","","","","","","","","","",""
"144","","570852","SARL_v646shwf11","msl000173","freq","","","img/orange_2bandit_a2.png","70","","70","test","1","","","square","circle","80","77","11","4","0.8961038961038961","","","","","","","","","",""
"null","","571515","SARL_v646shwf11","msl000173","freq_resp","","","img/orange_2bandit_a.png","70","img/orange_2bandit_a.png","70","test","","","","","","","","","4","","","","","","","","","","",""
"null","","571669","SARL_v646shwf11","msl000173","fixation","","","img/fixation.png","null","","","test","","","","","","","","","","","","","","","","","","","",""
"93","","571767","SARL_v646shwf11","msl000173","freq","","","img/orange_2bandit_a2.png","70","","70","test","1","","","square","circle","81","78","12","4","0.8974358974358975","","","","","","","","","",""
"null","","572479","SARL_v646shwf11","msl000173","freq_resp","","","img/orange_2bandit_a.png","70","img/orange_2bandit_a.png","70","test","","","","","","","","","4","","","","","","","","","","",""
"null","","572635","SARL_v646shwf11","msl000173","fixation","","","img/fixation.png","null","","","test","","","","","","","","","","","","","","","","","","","",""
"71","","572710","SARL_v646shwf11","msl000173","freq","","","img/orange_2bandit_a2.png","70","","70","test","1","","","square","circle","82","79","13","4","0.8987341772151899","","","","","","","","","",""
"null","","573445","SARL_v646shwf11","msl000173","freq_resp","","","img/orange_2bandit_a.png","70","img/orange_2bandit_a.png","70","test","","","","","","","","","4","","","","","","","","","","",""
"null","","573599","SARL_v646shwf11","msl000173","fixation","","","img/fixation.png","null","","","test","","","","","","","","","","","","","","","","","","","",""
"12","","573615","SARL_v646shwf11","msl000173","freq","","","img/orange_2bandit_a2.png","70","","70","test","1","","","square","circle","83","80","14","4","0.9","","","","","","","","","",""
"null","","574409","SARL_v646shwf11","msl000173","freq_resp","","","img/orange_2bandit_a.png","70","img/orange_2bandit_a.png","70","test","","","","","","","","","4","","","","","","","","","","",""
"null","","574565","SARL_v646shwf11","msl000173","fixation","","","img/fixation.png","null","","","test","","","","","","","","","","","","","","","","","","","",""
"108","","574678","SARL_v646shwf11","msl000173","freq","","","img/orange_2bandit_a2.png","70","","70","test","1","","","square","circle","84","81","15","4","0.9012345679012346","","","","","","","","","",""
"null","","575376","SARL_v646shwf11","msl000173","freq_resp","","","img/orange_2bandit_a.png","70","img/orange_2bandit_a.png","70","test","","","","","","","","","4","","","","","","","","","","",""
"null","","575532","SARL_v646shwf11","msl000173","fixation","","","img/fixation.png","null","","","test","","","","","","","","","","","","","","","","","","","",""
"126","","575663","SARL_v646shwf11","msl000173","freq","","","img/orange_2bandit_a2.png","70","","70","test","1","","","square","circle","85","82","16","4","0.9024390243902439","","","","","","","","","",""
"null","","576343","SARL_v646shwf11","msl000173","freq_resp","","","img/orange_2bandit_a.png","70","img/orange_2bandit_a.png","70","test","","","","","","","","","4","","","","","","","","","","",""
"null","","576500","SARL_v646shwf11","msl000173","fixation","","","img/fixation.png","null","","","test","","","","","","","","","","","","","","","","","","","",""
"258","","576763","SARL_v646shwf11","msl000173","freq","","","img/orange_2bandit_a2.png","70","","70","test","1","","","square","circle","86","83","17","4","0.9036144578313253","","","","","","","","","",""
"null","","577310","SARL_v646shwf11","msl000173","freq_resp","","","img/orange_2bandit_a.png","70","img/orange_2bandit_a.png","70","test","","","","","","","","","4","","","","","","","","","","",""
"null","","577466","SARL_v646shwf11","msl000173","fixation","","","img/fixation.png","null","","","test","","","","","","","","","","","","","","","","","","","",""
"215","","577686","SARL_v646shwf11","msl000173","freq","","","img/orange_2bandit_a2.png","70","","70","test","1","","","square","circle","87","84","18","4","0.9047619047619048","","","","","","","","","",""
"null","","578277","SARL_v646shwf11","msl000173","freq_resp","","","img/orange_2bandit_a.png","70","img/orange_2bandit_a.png","70","test","","","","","","","","","4","","","","","","","","","","",""
"null","","578433","SARL_v646shwf11","msl000173","fixation","","","img/fixation.png","null","","","test","","","","","","","","","","","","","","","","","","","",""
"300","","578738","SARL_v646shwf11","msl000173","freq","","","img/orange_2bandit_a2.png","70","","70","test","1","","","square","circle","88","85","19","4","0.9058823529411765","","","","","","","","","",""
"null","","579243","SARL_v646shwf11","msl000173","freq_resp","","","img/orange_2bandit_a.png","70","img/orange_2bandit_a.png","70","test","","","","","","","","","4","","","","","","","","","","",""
"null","","579398","SARL_v646shwf11","msl000173","fixation","","","img/fixation.png","null","","","test","","","","","","","","","","","","","","","","","","","",""
"543","","579947","SARL_v646shwf11","msl000173","infreq","","","img/green_2bandit_a2.png","68","","68","test","1","","","square","circle","89","86","20","4","0.9069767441860465","","","","","","","","","",""
"null","","580210","SARL_v646shwf11","msl000173","infreq_resp","","","img/green_2bandit_a.png","68","img/green_2bandit_a.png","68","test","","","","","","","","","4","","","","","","","","","","",""
"null","","580366","SARL_v646shwf11","msl000173","fixation","","","img/fixation.png","null","","","test","","","","","","","","","","","","","","","","","","","",""
"402","","580774","SARL_v646shwf11","msl000173","freq","","","img/orange_2bandit_a2.png","70","","70","test","1","","","square","circle","90","87","21","4","0.9080459770114943","","","","","","","","","",""
"null","","581178","SARL_v646shwf11","msl000173","freq_resp","","","img/orange_2bandit_a.png","70","img/orange_2bandit_a.png","70","test","","","","","","","","","4","","","","","","","","","","",""
"null","","581333","SARL_v646shwf11","msl000173","fixation","","","img/fixation.png","null","","","test","","","","","","","","","","","","","","","","","","","",""
"345","","581683","SARL_v646shwf11","msl000173","freq","","","img/orange_2bandit_a2.png","70","","70","test","1","","","square","circle","91","88","22","4","0.9090909090909091","","","","","","","","","",""
"null","","582145","SARL_v646shwf11","msl000173","freq_resp","","","img/orange_2bandit_a.png","70","img/orange_2bandit_a.png","70","test","","","","","","","","","4","","","","","","","","","","",""
"null","","582300","SARL_v646shwf11","msl000173","fixation","","","img/fixation.png","null","","","test","","","","","","","","","","","","","","","","","","","",""
"326","","582632","SARL_v646shwf11","msl000173","freq","","","img/orange_2bandit_a2.png","70","","70","test","1","","","square","circle","92","89","23","4","0.9101123595505618","","","","","","","","","",""
"null","","583111","SARL_v646shwf11","msl000173","freq_resp","","","img/orange_2bandit_a.png","70","img/orange_2bandit_a.png","70","test","","","","","","","","","4","","","","","","","","","","",""
"null","","583267","SARL_v646shwf11","msl000173","fixation","","","img/fixation.png","null","","","test","","","","","","","","","","","","","","","","","","","",""
"367","","583639","SARL_v646shwf11","msl000173","freq","","","img/orange_2bandit_a2.png","70","","70","test","1","","","square","circle","93","90","24","4","0.9111111111111111","","","","","","","","","",""
"null","","584078","SARL_v646shwf11","msl000173","freq_resp","","","img/orange_2bandit_a.png","70","img/orange_2bandit_a.png","70","test","","","","","","","","","4","","","","","","","","","","",""
"null","","584232","SARL_v646shwf11","msl000173","fixation","","","img/fixation.png","null","","","test","","","","","","","","","","","","","","","","","","","",""
"305","","584542","SARL_v646shwf11","msl000173","freq","","","img/orange_2bandit_a2.png","70","","70","test","1","","","square","circle","94","91","25","4","0.9120879120879121","","","","","","","","","",""
"null","","585043","SARL_v646shwf11","msl000173","freq_resp","","","img/orange_2bandit_a.png","70","img/orange_2bandit_a.png","70","test","","","","","","","","","4","","","","","","","","","","",""
"null","","585198","SARL_v646shwf11","msl000173","fixation","","","img/fixation.png","null","","","test","","","","","","","","","","","","","","","","","","","",""
"262","","585465","SARL_v646shwf11","msl000173","freq","","","img/orange_2bandit_a2.png","70","","70","test","1","","","square","circle","95","92","26","4","0.9130434782608695","","","","","","","","","",""
"null","","586010","SARL_v646shwf11","msl000173","freq_resp","","","img/orange_2bandit_a.png","70","img/orange_2bandit_a.png","70","test","","","","","","","","","4","","","","","","","","","","",""
"null","","586166","SARL_v646shwf11","msl000173","fixation","","","img/fixation.png","null","","","test","","","","","","","","","","","","","","","","","","","",""
"308","","586480","SARL_v646shwf11","msl000173","freq","","","img/orange_2bandit_a2.png","70","","70","test","1","","","square","circle","96","93","27","4","0.9139784946236559","","","","","","","","","",""
"null","","586979","SARL_v646shwf11","msl000173","freq_resp","","","img/orange_2bandit_a.png","70","img/orange_2bandit_a.png","70","test","","","","","","","","","4","","","","","","","","","","",""
"null","","587134","SARL_v646shwf11","msl000173","fixation","","","img/fixation.png","null","","","test","","","","","","","","","","","","","","","","","","","",""
"298","","587438","SARL_v646shwf11","msl000173","freq","","","img/orange_2bandit_a2.png","70","","70","test","1","","","square","circle","97","94","28","4","0.9148936170212766","","","","","","","","","",""
"null","","587944","SARL_v646shwf11","msl000173","freq_resp","","","img/orange_2bandit_a.png","70","img/orange_2bandit_a.png","70","test","","","","","","","","","4","","","","","","","","","","",""
"null","","588100","SARL_v646shwf11","msl000173","fixation","","","img/fixation.png","null","","","test","","","","","","","","","","","","","","","","","","","",""
"532","","588635","SARL_v646shwf11","msl000173","rl","","","img/black_2bandit_a2.png","74","","0","test","","","1","square","circle","98","","0","4","","74","0.2","0.8","0.12226186148537277","0.8","0.2","0.8","square","4","0"
"null","","589391","SARL_v646shwf11","msl000173","feedback","","","img/yay_L_a.png","null","","na","test","","","","","","","","","4","","74","0.2","0.8","","","","0.8","","4",""
"308","","589706","SARL_v646shwf11","msl000173","freq","","","img/orange_2bandit_a2.png","70","","70","test","1","","","square","circle","99","95","1","5","0.9157894736842105","","","","","","","","","",""
"null","","590204","SARL_v646shwf11","msl000173","freq_resp","","","img/orange_2bandit_a.png","70","img/orange_2bandit_a.png","70","test","","","","","","","","","5","","","","","","","","","","",""
"null","","590359","SARL_v646shwf11","msl000173","fixation","","","img/fixation.png","null","","","test","","","","","","","","","","","","","","","","","","","",""
"242","","590607","SARL_v646shwf11","msl000173","freq","","","img/orange_2bandit_a2.png","70","","70","test","1","","","square","circle","100","96","2","5","0.9166666666666666","","","","","","","","","",""
"null","","591171","SARL_v646shwf11","msl000173","freq_resp","","","img/orange_2bandit_a.png","70","img/orange_2bandit_a.png","70","test","","","","","","","","","5","","","","","","","","","","",""
"null","","591326","SARL_v646shwf11","msl000173","fixation","","","img/fixation.png","null","","","test","","","","","","","","","","","","","","","","","","","",""
"89","","591420","SARL_v646shwf11","msl000173","freq","","","img/orange_2bandit_a2.png","70","","70","test","1","","","square","circle","101","97","3","5","0.9175257731958762","","","","","","","","","",""
"null","","592136","SARL_v646shwf11","msl000173","freq_resp","","","img/orange_2bandit_a.png","70","img/orange_2bandit_a.png","70","test","","","","","","","","","5","","","","","","","","","","",""
"null","","592291","SARL_v646shwf11","msl000173","fixation","","","img/fixation.png","null","","","test","","","","","","","","","","","","","","","","","","","",""
"77","","592373","SARL_v646shwf11","msl000173","freq","","","img/orange_2bandit_a2.png","70","","70","test","1","","","square","circle","102","98","4","5","0.9183673469387755","","","","","","","","","",""
"null","","593101","SARL_v646shwf11","msl000173","freq_resp","","","img/orange_2bandit_a.png","70","img/orange_2bandit_a.png","70","test","","","","","","","","","5","","","","","","","","","","",""
"null","","593257","SARL_v646shwf11","msl000173","fixation","","","img/fixation.png","null","","","test","","","","","","","","","","","","","","","","","","","",""
"97","","593357","SARL_v646shwf11","msl000173","freq","","","img/orange_2bandit_a2.png","70","","70","test","1","","","square","circle","103","99","5","5","0.9191919191919192","","","","","","","","","",""
"null","","594066","SARL_v646shwf11","msl000173","freq_resp","","","img/orange_2bandit_a.png","70","img/orange_2bandit_a.png","70","test","","","","","","","","","5","","","","","","","","","","",""
"null","","594221","SARL_v646shwf11","msl000173","fixation","","","img/fixation.png","null","","","test","","","","","","","","","","","","","","","","","","","",""
"null","","595028","SARL_v646shwf11","msl000173","freq","","","img/orange_2bandit_a2.png","null","","70","test","0","","","square","circle","104","100","6","5","0.91","","","","","","","","","",""
"null","","595182","SARL_v646shwf11","msl000173","fixation","","","img/fixation.png","null","","","test","","","","","","","","","","","","","","","","","","","",""
"125","","595311","SARL_v646shwf11","msl000173","freq","","","img/orange_2bandit_a2.png","70","","70","test","1","","","square","circle","105","101","7","5","0.9108910891089109","","","","","","","","","",""
"null","","595992","SARL_v646shwf11","msl000173","freq_resp","","","img/orange_2bandit_a.png","70","img/orange_2bandit_a.png","70","test","","","","","","","","","5","","","","","","","","","","",""
"null","","596148","SARL_v646shwf11","msl000173","fixation","","","img/fixation.png","null","","","test","","","","","","","","","","","","","","","","","","","",""
"79","","596231","SARL_v646shwf11","msl000173","infreq","","","img/green_2bandit_a2.png","70","","68","test","0","","","square","circle","106","102","8","5","0.9019607843137255","","","","","","","","","",""
"null","","596957","SARL_v646shwf11","msl000173","infreq_resp","","","img/green_2bandit_a.png","70","img/green_2bandit_a.png","68","test","","","","","","","","","5","","","","","","","","","","",""
"null","","597113","SARL_v646shwf11","msl000173","fixation","","","img/fixation.png","null","","","test","","","","","","","","","","","","","","","","","","","",""
"131","","597249","SARL_v646shwf11","msl000173","freq","","","img/orange_2bandit_a2.png","70","","70","test","1","","","square","circle","107","103","9","5","0.9029126213592233","","","","","","","","","",""
"null","","597923","SARL_v646shwf11","msl000173","freq_resp","","","img/orange_2bandit_a.png","70","img/orange_2bandit_a.png","70","test","","","","","","","","","5","","","","","","","","","","",""
"null","","598079","SARL_v646shwf11","msl000173","fixation","","","img/fixation.png","null","","","test","","","","","","","","","","","","","","","","","","","",""
"250","","598333","SARL_v646shwf11","msl000173","freq","","","img/orange_2bandit_a2.png","70","","70","test","1","","","square","circle","108","104","10","5","0.9038461538461539","","","","","","","","","",""
"null","","598888","SARL_v646shwf11","msl000173","freq_resp","","","img/orange_2bandit_a.png","70","img/orange_2bandit_a.png","70","test","","","","","","","","","5","","","","","","","","","","",""
"null","","599044","SARL_v646shwf11","msl000173","fixation","","","img/fixation.png","null","","","test","","","","","","","","","","","","","","","","","","","",""
"273","","599322","SARL_v646shwf11","msl000173","freq","","","img/orange_2bandit_a2.png","70","","70","test","1","","","square","circle","109","105","11","5","0.9047619047619048","","","","","","","","","",""
"null","","599854","SARL_v646shwf11","msl000173","freq_resp","","","img/orange_2bandit_a.png","70","img/orange_2bandit_a.png","70","test","","","","","","","","","5","","","","","","","","","","",""
"null","","600009","SARL_v646shwf11","msl000173","fixation","","","img/fixation.png","null","","","test","","","","","","","","","","","","","","","","","","","",""
"114","","600129","SARL_v646shwf11","msl000173","freq","","","img/orange_2bandit_a2.png","70","","70","test","1","","","square","circle","110","106","12","5","0.9056603773584906","","","","","","","","","",""
"null","","600819","SARL_v646shwf11","msl000173","freq_resp","","","img/orange_2bandit_a.png","70","img/orange_2bandit_a.png","70","test","","","","","","","","","5","","","","","","","","","","",""
"null","","600976","SARL_v646shwf11","msl000173","fixation","","","img/fixation.png","null","","","test","","","","","","","","","","","","","","","","","","","",""
"242","","601223","SARL_v646shwf11","msl000173","infreq","","","img/green_2bandit_a2.png","70","","68","test","0","","","square","circle","111","107","13","5","0.897196261682243","","","","","","","","","",""
"null","","601786","SARL_v646shwf11","msl000173","infreq_resp","","","img/green_2bandit_a.png","70","img/green_2bandit_a.png","68","test","","","","","","","","","5","","","","","","","","","","",""
"null","","601941","SARL_v646shwf11","msl000173","fixation","","","img/fixation.png","null","","","test","","","","","","","","","","","","","","","","","","","",""
"289","","602235","SARL_v646shwf11","msl000173","freq","","","img/orange_2bandit_a2.png","70","","70","test","1","","","square","circle","112","108","14","5","0.8981481481481481","","","","","","","","","",""
"null","","602752","SARL_v646shwf11","msl000173","freq_resp","","","img/orange_2bandit_a.png","70","img/orange_2bandit_a.png","70","test","","","","","","","","","5","","","","","","","","","","",""
"null","","602907","SARL_v646shwf11","msl000173","fixation","","","img/fixation.png","null","","","test","","","","","","","","","","","","","","","","","","","",""
"331","","603241","SARL_v646shwf11","msl000173","freq","","","img/orange_2bandit_a2.png","70","","70","test","1","","","square","circle","113","109","15","5","0.8990825688073395","","","","","","","","","",""
"null","","603716","SARL_v646shwf11","msl000173","freq_resp","","","img/orange_2bandit_a.png","70","img/orange_2bandit_a.png","70","test","","","","","","","","","5","","","","","","","","","","",""
"null","","603872","SARL_v646shwf11","msl000173","fixation","","","img/fixation.png","null","","","test","","","","","","","","","","","","","","","","","","","",""
"367","","604242","SARL_v646shwf11","msl000173","freq","","","img/orange_2bandit_a2.png","70","","70","test","1","","","square","circle","114","110","16","5","0.9","","","","","","","","","",""
"null","","604680","SARL_v646shwf11","msl000173","freq_resp","","","img/orange_2bandit_a.png","70","img/orange_2bandit_a.png","70","test","","","","","","","","","5","","","","","","","","","","",""
"null","","604837","SARL_v646shwf11","msl000173","fixation","","","img/fixation.png","null","","","test","","","","","","","","","","","","","","","","","","","",""
"289","","605131","SARL_v646shwf11","msl000173","freq","","","img/orange_2bandit_a2.png","70","","70","test","1","","","square","circle","115","111","17","5","0.9009009009009009","","","","","","","","","",""
"null","","605648","SARL_v646shwf11","msl000173","freq_resp","","","img/orange_2bandit_a.png","70","img/orange_2bandit_a.png","70","test","","","","","","","","","5","","","","","","","","","","",""
"null","","605805","SARL_v646shwf11","msl000173","fixation","","","img/fixation.png","null","","","test","","","","","","","","","","","","","","","","","","","",""
"270","","606080","SARL_v646shwf11","msl000173","freq","","","img/orange_2bandit_a2.png","70","","70","test","1","","","square","circle","116","112","18","5","0.9017857142857143","","","","","","","","","",""
"null","","606616","SARL_v646shwf11","msl000173","freq_resp","","","img/orange_2bandit_a.png","70","img/orange_2bandit_a.png","70","test","","","","","","","","","5","","","","","","","","","","",""
"null","","606772","SARL_v646shwf11","msl000173","fixation","","","img/fixation.png","null","","","test","","","","","","","","","","","","","","","","","","","",""
"289","","607067","SARL_v646shwf11","msl000173","freq","","","img/orange_2bandit_a2.png","70","","70","test","1","","","square","circle","117","113","19","5","0.9026548672566371","","","","","","","","","",""
"null","","607581","SARL_v646shwf11","msl000173","freq_resp","","","img/orange_2bandit_a.png","70","img/orange_2bandit_a.png","70","test","","","","","","","","","5","","","","","","","","","","",""
"null","","607737","SARL_v646shwf11","msl000173","fixation","","","img/fixation.png","null","","","test","","","","","","","","","","","","","","","","","","","",""
"338","","608079","SARL_v646shwf11","msl000173","freq","","","img/orange_2bandit_a2.png","70","","70","test","1","","","square","circle","118","114","20","5","0.9035087719298246","","","","","","","","","",""
"null","","608547","SARL_v646shwf11","msl000173","freq_resp","","","img/orange_2bandit_a.png","70","img/orange_2bandit_a.png","70","test","","","","","","","","","5","","","","","","","","","","",""
"null","","608702","SARL_v646shwf11","msl000173","fixation","","","img/fixation.png","null","","","test","","","","","","","","","","","","","","","","","","","",""
"325","","609034","SARL_v646shwf11","msl000173","freq","","","img/orange_2bandit_a2.png","70","","70","test","1","","","square","circle","119","115","21","5","0.9043478260869565","","","","","","","","","",""
"null","","609515","SARL_v646shwf11","msl000173","freq_resp","","","img/orange_2bandit_a.png","70","img/orange_2bandit_a.png","70","test","","","","","","","","","5","","","","","","","","","","",""
"null","","609671","SARL_v646shwf11","msl000173","fixation","","","img/fixation.png","null","","","test","","","","","","","","","","","","","","","","","","","",""
"291","","609967","SARL_v646shwf11","msl000173","freq","","","img/orange_2bandit_a2.png","70","","70","test","1","","","square","circle","120","116","22","5","0.9051724137931034","","","","","","","","","",""
"null","","610481","SARL_v646shwf11","msl000173","freq_resp","","","img/orange_2bandit_a.png","70","img/orange_2bandit_a.png","70","test","","","","","","","","","5","","","","","","","","","","",""
"null","","610637","SARL_v646shwf11","msl000173","fixation","","","img/fixation.png","null","","","test","","","","","","","","","","","","","","","","","","","",""
"210","","610851","SARL_v646shwf11","msl000173","infreq","","","img/green_2bandit_a2.png","70","","68","test","0","","","square","circle","121","117","23","5","0.8974358974358975","","","","","","","","","",""
"null","","611447","SARL_v646shwf11","msl000173","infreq_resp","","","img/green_2bandit_a.png","70","img/green_2bandit_a.png","68","test","","","","","","","","","5","","","","","","","","","","",""
"null","","611603","SARL_v646shwf11","msl000173","fixation","","","img/fixation.png","null","","","test","","","","","","","","","","","","","","","","","","","",""
"270","","611878","SARL_v646shwf11","msl000173","freq","","","img/orange_2bandit_a2.png","70","","70","test","1","","","square","circle","122","118","24","5","0.8983050847457628","","","","","","","","","",""
"null","","612413","SARL_v646shwf11","msl000173","freq_resp","","","img/orange_2bandit_a.png","70","img/orange_2bandit_a.png","70","test","","","","","","","","","5","","","","","","","","","","",""
"null","","612568","SARL_v646shwf11","msl000173","fixation","","","img/fixation.png","null","","","test","","","","","","","","","","","","","","","","","","","",""
"165","","612738","SARL_v646shwf11","msl000173","infreq","","","img/green_2bandit_a2.png","70","","68","test","0","","","square","circle","123","119","25","5","0.8907563025210085","","","","","","","","","",""
"null","","613379","SARL_v646shwf11","msl000173","infreq_resp","","","img/green_2bandit_a.png","70","img/green_2bandit_a.png","68","test","","","","","","","","","5","","","","","","","","","","",""
"null","","613535","SARL_v646shwf11","msl000173","fixation","","","img/fixation.png","null","","","test","","","","","","","","","","","","","","","","","","","",""
"144","","613684","SARL_v646shwf11","msl000173","freq","","","img/orange_2bandit_a2.png","70","","70","test","1","","","square","circle","124","120","26","5","0.8916666666666667","","","","","","","","","",""
"null","","614345","SARL_v646shwf11","msl000173","freq_resp","","","img/orange_2bandit_a.png","70","img/orange_2bandit_a.png","70","test","","","","","","","","","5","","","","","","","","","","",""
"null","","614501","SARL_v646shwf11","msl000173","fixation","","","img/fixation.png","null","","","test","","","","","","","","","","","","","","","","","","","",""
"288","","614796","SARL_v646shwf11","msl000173","freq","","","img/orange_2bandit_a2.png","70","","70","test","1","","","square","circle","125","121","27","5","0.8925619834710744","","","","","","","","","",""
"null","","615313","SARL_v646shwf11","msl000173","freq_resp","","","img/orange_2bandit_a.png","70","img/orange_2bandit_a.png","70","test","","","","","","","","","5","","","","","","","","","","",""
"null","","615469","SARL_v646shwf11","msl000173","fixation","","","img/fixation.png","null","","","test","","","","","","","","","","","","","","","","","","","",""
"280","","615754","SARL_v646shwf11","msl000173","freq","","","img/orange_2bandit_a2.png","70","","70","test","1","","","square","circle","126","122","28","5","0.8934426229508197","","","","","","","","","",""
"null","","616279","SARL_v646shwf11","msl000173","freq_resp","","","img/orange_2bandit_a.png","70","img/orange_2bandit_a.png","70","test","","","","","","","","","5","","","","","","","","","","",""
"null","","616435","SARL_v646shwf11","msl000173","fixation","","","img/fixation.png","null","","","test","","","","","","","","","","","","","","","","","","","",""
"1244","","617684","SARL_v646shwf11","msl000173","rl","","","img/black_2bandit_a2.png","74","","0","test","","","1","square","circle","127","","0","5","","74","0.2","0.8","0.07669327357023248","0.8","0.2","0.8","square","5","0"
"null","","618440","SARL_v646shwf11","msl000173","feedback","","","img/yay_L_a.png","null","","na","test","","","","","","","","","5","","74","0.2","0.8","","","","0.8","","5",""
"null","","619245","SARL_v646shwf11","msl000173","freq","","","img/orange_2bandit_a2.png","null","","70","test","0","","","square","circle","128","123","1","6","0.8861788617886179","","","","","","","","","",""
"null","","619401","SARL_v646shwf11","msl000173","fixation","","","img/fixation.png","null","","","test","","","","","","","","","","","","","","","","","","","",""
"516","","619921","SARL_v646shwf11","msl000173","infreq","","","img/green_2bandit_a2.png","68","","68","test","1","","","square","circle","129","124","2","6","0.8870967741935484","","","","","","","","","",""
"null","","620210","SARL_v646shwf11","msl000173","infreq_resp","","","img/green_2bandit_a.png","68","img/green_2bandit_a.png","68","test","","","","","","","","","6","","","","","","","","","","",""
"null","","620366","SARL_v646shwf11","msl000173","fixation","","","img/fixation.png","null","","","test","","","","","","","","","","","","","","","","","","","",""
"378","","620749","SARL_v646shwf11","msl000173","freq","","","img/orange_2bandit_a2.png","70","","70","test","1","","","square","circle","130","125","3","6","0.888","","","","","","","","","",""
"null","","621176","SARL_v646shwf11","msl000173","freq_resp","","","img/orange_2bandit_a.png","70","img/orange_2bandit_a.png","70","test","","","","","","","","","6","","","","","","","","","","",""
"null","","621332","SARL_v646shwf11","msl000173","fixation","","","img/fixation.png","null","","","test","","","","","","","","","","","","","","","","","","","",""
"371","","621705","SARL_v646shwf11","msl000173","freq","","","img/orange_2bandit_a2.png","70","","70","test","1","","","square","circle","131","126","4","6","0.8888888888888888","","","","","","","","","",""
"null","","622140","SARL_v646shwf11","msl000173","freq_resp","","","img/orange_2bandit_a.png","70","img/orange_2bandit_a.png","70","test","","","","","","","","","6","","","","","","","","","","",""
"null","","622297","SARL_v646shwf11","msl000173","fixation","","","img/fixation.png","null","","","test","","","","","","","","","","","","","","","","","","","",""
"355","","622656","SARL_v646shwf11","msl000173","freq","","","img/orange_2bandit_a2.png","70","","70","test","1","","","square","circle","132","127","5","6","0.889763779527559","","","","","","","","","",""
"null","","623107","SARL_v646shwf11","msl000173","freq_resp","","","img/orange_2bandit_a.png","70","img/orange_2bandit_a.png","70","test","","","","","","","","","6","","","","","","","","","","",""
"null","","623263","SARL_v646shwf11","msl000173","fixation","","","img/fixation.png","null","","","test","","","","","","","","","","","","","","","","","","","",""
"286","","623554","SARL_v646shwf11","msl000173","freq","","","img/orange_2bandit_a2.png","70","","70","test","1","","","square","circle","133","128","6","6","0.890625","","","","","","","","","",""
"null","","624074","SARL_v646shwf11","msl000173","freq_resp","","","img/orange_2bandit_a.png","70","img/orange_2bandit_a.png","70","test","","","","","","","","","6","","","","","","","","","","",""
"null","","624229","SARL_v646shwf11","msl000173","fixation","","","img/fixation.png","null","","","test","","","","","","","","","","","","","","","","","","","",""
"324","","624559","SARL_v646shwf11","msl000173","freq","","","img/orange_2bandit_a2.png","70","","70","test","1","","","square","circle","134","129","7","6","0.8914728682170543","","","","","","","","","",""
"null","","625041","SARL_v646shwf11","msl000173","freq_resp","","","img/orange_2bandit_a.png","70","img/orange_2bandit_a.png","70","test","","","","","","","","","6","","","","","","","","","","",""
"null","","625196","SARL_v646shwf11","msl000173","fixation","","","img/fixation.png","null","","","test","","","","","","","","","","","","","","","","","","","",""
"414","","625615","SARL_v646shwf11","msl000173","freq","","","img/orange_2bandit_a2.png","70","","70","test","1","","","square","circle","135","130","8","6","0.8923076923076924","","","","","","","","","",""
"null","","626007","SARL_v646shwf11","msl000173","freq_resp","","","img/orange_2bandit_a.png","70","img/orange_2bandit_a.png","70","test","","","","","","","","","6","","","","","","","","","","",""
"null","","626162","SARL_v646shwf11","msl000173","fixation","","","img/fixation.png","null","","","test","","","","","","","","","","","","","","","","","","","",""
"415","","626583","SARL_v646shwf11","msl000173","infreq","","","img/green_2bandit_a2.png","68","","68","test","1","","","square","circle","136","131","9","6","0.8931297709923665","","","","","","","","","",""
"null","","626973","SARL_v646shwf11","msl000173","infreq_resp","","","img/green_2bandit_a.png","68","img/green_2bandit_a.png","68","test","","","","","","","","","6","","","","","","","","","","",""
"null","","627129","SARL_v646shwf11","msl000173","fixation","","","img/fixation.png","null","","","test","","","","","","","","","","","","","","","","","","","",""
"287","","627421","SARL_v646shwf11","msl000173","freq","","","img/orange_2bandit_a2.png","70","","70","test","1","","","square","circle","137","132","10","6","0.8939393939393939","","","","","","","","","",""
"null","","627939","SARL_v646shwf11","msl000173","freq_resp","","","img/orange_2bandit_a.png","70","img/orange_2bandit_a.png","70","test","","","","","","","","","6","","","","","","","","","","",""
"null","","628095","SARL_v646shwf11","msl000173","fixation","","","img/fixation.png","null","","","test","","","","","","","","","","","","","","","","","","","",""
"393","","628494","SARL_v646shwf11","msl000173","freq","","","img/orange_2bandit_a2.png","70","","70","test","1","","","square","circle","138","133","11","6","0.8947368421052632","","","","","","","","","",""
"null","","628908","SARL_v646shwf11","msl000173","freq_resp","","","img/orange_2bandit_a.png","70","img/orange_2bandit_a.png","70","test","","","","","","","","","6","","","","","","","","","","",""
"null","","629064","SARL_v646shwf11","msl000173","fixation","","","img/fixation.png","null","","","test","","","","","","","","","","","","","","","","","","","",""
"339","","629407","SARL_v646shwf11","msl000173","freq","","","img/orange_2bandit_a2.png","70","","70","test","1","","","square","circle","139","134","12","6","0.8955223880597015","","","","","","","","","",""
"null","","629874","SARL_v646shwf11","msl000173","freq_resp","","","img/orange_2bandit_a.png","70","img/orange_2bandit_a.png","70","test","","","","","","","","","6","","","","","","","","","","",""
"null","","630030","SARL_v646shwf11","msl000173","fixation","","","img/fixation.png","null","","","test","","","","","","","","","","","","","","","","","","","",""
"532","","630567","SARL_v646shwf11","msl000173","infreq","","","img/green_2bandit_a2.png","68","","68","test","1","","","square","circle","140","135","13","6","0.8962962962962963","","","","","","","","","",""
"null","","630841","SARL_v646shwf11","msl000173","infreq_resp","","","img/green_2bandit_a.png","68","img/green_2bandit_a.png","68","test","","","","","","","","","6","","","","","","","","","","",""
"null","","630997","SARL_v646shwf11","msl000173","fixation","","","img/fixation.png","null","","","test","","","","","","","","","","","","","","","","","","","",""
"402","","631404","SARL_v646shwf11","msl000173","freq","","","img/orange_2bandit_a2.png","70","","70","test","1","","","square","circle","141","136","14","6","0.8970588235294118","","","","","","","","","",""
"null","","631808","SARL_v646shwf11","msl000173","freq_resp","","","img/orange_2bandit_a.png","70","img/orange_2bandit_a.png","70","test","","","","","","","","","6","","","","","","","","","","",""
"null","","631963","SARL_v646shwf11","msl000173","fixation","","","img/fixation.png","null","","","test","","","","","","","","","","","","","","","","","","","",""
"284","","632252","SARL_v646shwf11","msl000173","freq","","","img/orange_2bandit_a2.png","70","","70","test","1","","","square","circle","142","137","15","6","0.8978102189781022","","","","","","","","","",""
"null","","632774","SARL_v646shwf11","msl000173","freq_resp","","","img/orange_2bandit_a.png","70","img/orange_2bandit_a.png","70","test","","","","","","","","","6","","","","","","","","","","",""
"null","","632931","SARL_v646shwf11","msl000173","fixation","","","img/fixation.png","null","","","test","","","","","","","","","","","","","","","","","","","",""
"280","","633216","SARL_v646shwf11","msl000173","freq","","","img/orange_2bandit_a2.png","70","","70","test","1","","","square","circle","143","138","16","6","0.8985507246376812","","","","","","","","","",""
"null","","633741","SARL_v646shwf11","msl000173","freq_resp","","","img/orange_2bandit_a.png","70","img/orange_2bandit_a.png","70","test","","","","","","","","","6","","","","","","","","","","",""
"null","","633896","SARL_v646shwf11","msl000173","fixation","","","img/fixation.png","null","","","test","","","","","","","","","","","","","","","","","","","",""
"319","","634220","SARL_v646shwf11","msl000173","freq","","","img/orange_2bandit_a2.png","70","","70","test","1","","","square","circle","144","139","17","6","0.8992805755395683","","","","","","","","","",""
"null","","634706","SARL_v646shwf11","msl000173","freq_resp","","","img/orange_2bandit_a.png","70","img/orange_2bandit_a.png","70","test","","","","","","","","","6","","","","","","","","","","",""
"null","","634862","SARL_v646shwf11","msl000173","fixation","","","img/fixation.png","null","","","test","","","","","","","","","","","","","","","","","","","",""
"301","","635167","SARL_v646shwf11","msl000173","freq","","","img/orange_2bandit_a2.png","70","","70","test","1","","","square","circle","145","140","18","6","0.9","","","","","","","","","",""
"null","","635672","SARL_v646shwf11","msl000173","freq_resp","","","img/orange_2bandit_a.png","70","img/orange_2bandit_a.png","70","test","","","","","","","","","6","","","","","","","","","","",""
"null","","635827","SARL_v646shwf11","msl000173","fixation","","","img/fixation.png","null","","","test","","","","","","","","","","","","","","","","","","","",""
"306","","636139","SARL_v646shwf11","msl000173","freq","","","img/orange_2bandit_a2.png","70","","70","test","1","","","square","circle","146","141","19","6","0.900709219858156","","","","","","","","","",""
"null","","636639","SARL_v646shwf11","msl000173","freq_resp","","","img/orange_2bandit_a.png","70","img/orange_2bandit_a.png","70","test","","","","","","","","","6","","","","","","","","","","",""
"null","","636795","SARL_v646shwf11","msl000173","fixation","","","img/fixation.png","null","","","test","","","","","","","","","","","","","","","","","","","",""
"308","","637108","SARL_v646shwf11","msl000173","freq","","","img/orange_2bandit_a2.png","70","","70","test","1","","","square","circle","147","142","20","6","0.9014084507042254","","","","","","","","","",""
"null","","637606","SARL_v646shwf11","msl000173","freq_resp","","","img/orange_2bandit_a.png","70","img/orange_2bandit_a.png","70","test","","","","","","","","","6","","","","","","","","","","",""
"null","","637762","SARL_v646shwf11","msl000173","fixation","","","img/fixation.png","null","","","test","","","","","","","","","","","","","","","","","","","",""
"525","","638292","SARL_v646shwf11","msl000173","rl","","","img/black_2bandit_a2.png","74","","0","test","","","1","square","circle","148","","0","6","","74","0.2","0.8","0.7624111443277797","0.8","0.2","0.8","square","6","0"
"null","","639047","SARL_v646shwf11","msl000173","feedback","","","img/yay_L_a.png","null","","na","test","","","","","","","","","6","","74","0.2","0.8","","","","0.8","","6",""
"389","","639441","SARL_v646shwf11","msl000173","freq","","","img/orange_2bandit_a2.png","70","","70","test","1","","","square","circle","149","143","1","7","0.9020979020979021","","","","","","","","","",""
