"rt","responses","time_elapsed","subject","demoID","trialType","rlType","attType","stimulus","key_press","stim","corrresp","phase","corr","pracCounter","reward","bandOne","bandTwo","trialNum","attentionNum","attentionRunNum","blockNum","performance","bandChosen","circleVal","squareVal","coin","bandOneVal","bandTwoVal","pReward","shapeChosen","rlNum","badFlag"
"123014","{""Q0"":""msl000084""}","123041","SARL_v6ne1kg4lj","msl000084","","","","","","","","","","","","","","","","","","","","","","","","","","","",""
"7351","","130399","SARL_v6ne1kg4lj","msl000084","","","","","","","","","","","","","","","","","","","","","","","","","","","",""
"","","132456","SARL_v6ne1kg4lj","msl000084","fullscreen","fullscreen","fullscreen","","","","","","","","","","","","","","","","","","","","","","","","",""
"94528","","226989","SARL_v6ne1kg4lj","msl000084","","","","","","","","","","","","","","","","","","","","","","","","","","","",""
"null","","227795","SARL_v6ne1kg4lj","msl000084","freqPrac","","","img/orange_2bandit_a2.png","null","img/orange_2bandit_a2.png","70","prac","0","1","","","","","","","","","","","","","","","","","",""
"null","","228802","SARL_v6ne1kg4lj","msl000084","feedback","","","img/tooSlow.png","null","","na","prac","","","","","","","","","","","","","","","","","","","",""
"null","","228958","SARL_v6ne1kg4lj","msl000084","fixation","","","img/fixation.png","null","","","prac","","","","","","","","","","","","","","","","","","","",""
"null","","229763","SARL_v6ne1kg4lj","msl000084","infreqPrac","","","img/green_2bandit_a2.png","null","img/green_2bandit_a2.png","68","prac","0","2","","","","","","","","","","","","","","","","","",""
"null","","230768","SARL_v6ne1kg4lj","msl000084","feedback","","","img/tooSlow.png","null","","na","prac","","","","","","","","","","","","","","","","","","","",""
"null","","230924","SARL_v6ne1kg4lj","msl000084","fixation","","","img/fixation.png","null","","","prac","","","","","","","","","","","","","","","","","","","",""
"553","","231483","SARL_v6ne1kg4lj","msl000084","freqPrac","","","img/orange_2bandit_a2.png","70","img/orange_2bandit_a2.png","70","prac","1","2","","","","","","","","","","","","","","","","","",""
"553","","231735","SARL_v6ne1kg4lj","msl000084","freqPrac_resp","","","img/orange_2bandit_a.png","70","img/orange_2bandit_a.png","70","prac","","","","","","","","","","","","","","","","","","","",""
"null","","231891","SARL_v6ne1kg4lj","msl000084","fixation","","","img/fixation.png","null","","","prac","","","","","","","","","","","","","","","","","","","",""
"478","","232375","SARL_v6ne1kg4lj","msl000084","infreqPrac","","","img/green_2bandit_a2.png","68","img/green_2bandit_a2.png","68","prac","1","2","","","","","","","","","","","","","","","","","",""
"478","","232703","SARL_v6ne1kg4lj","msl000084","infreqPrac_resp","","","img/green_2bandit_a.png","68","img/green_2bandit_a.png","68","prac","","","","","","","","","","","","","","","","","","","",""
"null","","232859","SARL_v6ne1kg4lj","msl000084","fixation","","","img/fixation.png","null","","","prac","","","","","","","","","","","","","","","","","","","",""
"450","","233315","SARL_v6ne1kg4lj","msl000084","infreqPrac","","","img/green_2bandit_a2.png","68","img/green_2bandit_a2.png","68","prac","1","2","","","","","","","","","","","","","","","","","",""
"450","","233670","SARL_v6ne1kg4lj","msl000084","infreqPrac_resp","","","img/green_2bandit_a.png","68","img/green_2bandit_a.png","68","prac","","","","","","","","","","","","","","","","","","","",""
"null","","233826","SARL_v6ne1kg4lj","msl000084","fixation","","","img/fixation.png","null","","","prac","","","","","","","","","","","","","","","","","","","",""
"436","","234267","SARL_v6ne1kg4lj","msl000084","infreqPrac","","","img/green_2bandit_a2.png","68","img/green_2bandit_a2.png","68","prac","1","2","","","","","","","","","","","","","","","","","",""
"436","","234637","SARL_v6ne1kg4lj","msl000084","infreqPrac_resp","","","img/green_2bandit_a.png","68","img/green_2bandit_a.png","68","prac","","","","","","","","","","","","","","","","","","","",""
"null","","234793","SARL_v6ne1kg4lj","msl000084","fixation","","","img/fixation.png","null","","","prac","","","","","","","","","","","","","","","","","","","",""
"337","","235135","SARL_v6ne1kg4lj","msl000084","freqPrac","","","img/orange_2bandit_a2.png","70","img/orange_2bandit_a2.png","70","prac","1","2","","","","","","","","","","","","","","","","","",""
"337","","235602","SARL_v6ne1kg4lj","msl000084","freqPrac_resp","","","img/orange_2bandit_a.png","70","img/orange_2bandit_a.png","70","prac","","","","","","","","","","","","","","","","","","","",""
"null","","235758","SARL_v6ne1kg4lj","msl000084","fixation","","","img/fixation.png","null","","","prac","","","","","","","","","","","","","","","","","","","",""
"314","","236077","SARL_v6ne1kg4lj","msl000084","infreqPrac","","","img/green_2bandit_a2.png","68","img/green_2bandit_a2.png","68","prac","1","2","","","","","","","","","","","","","","","","","",""
"314","","236568","SARL_v6ne1kg4lj","msl000084","infreqPrac_resp","","","img/green_2bandit_a.png","68","img/green_2bandit_a.png","68","prac","","","","","","","","","","","","","","","","","","","",""
"null","","236724","SARL_v6ne1kg4lj","msl000084","fixation","","","img/fixation.png","null","","","prac","","","","","","","","","","","","","","","","","","","",""
"406","","237135","SARL_v6ne1kg4lj","msl000084","freqPrac","","","img/orange_2bandit_a2.png","70","img/orange_2bandit_a2.png","70","prac","1","2","","","","","","","","","","","","","","","","","",""
"406","","237533","SARL_v6ne1kg4lj","msl000084","freqPrac_resp","","","img/orange_2bandit_a.png","70","img/orange_2bandit_a.png","70","prac","","","","","","","","","","","","","","","","","","","",""
"null","","237689","SARL_v6ne1kg4lj","msl000084","fixation","","","img/fixation.png","null","","","prac","","","","","","","","","","","","","","","","","","","",""
"487","","238182","SARL_v6ne1kg4lj","msl000084","freqPrac","","","img/orange_2bandit_a2.png","70","img/orange_2bandit_a2.png","70","prac","1","2","","","","","","","","","","","","","","","","","",""
"487","","238499","SARL_v6ne1kg4lj","msl000084","freqPrac_resp","","","img/orange_2bandit_a.png","70","img/orange_2bandit_a.png","70","prac","","","","","","","","","","","","","","","","","","","",""
"null","","238656","SARL_v6ne1kg4lj","msl000084","fixation","","","img/fixation.png","null","","","prac","","","","","","","","","","","","","","","","","","","",""
"50300","","288962","SARL_v6ne1kg4lj","msl000084","","","","","","","","prac","","","","","","","","","","","","","","","","","","","",""
"986","","289952","SARL_v6ne1kg4lj","msl000084","rlPractice","","","img/black_2bandit_a2.png","74","img/black_2bandit_a2.png","","prac","","","75","","","","","","","","","","","","","","","","",""
"null","","290707","SARL_v6ne1kg4lj","msl000084","feedback","","","img/boo_L_a.png","null","","na","prac","","","","","","","","","","","","","","","","","","","",""
"null","","290863","SARL_v6ne1kg4lj","msl000084","fixation","","","img/fixation.png","null","","","prac","","","","","","","","","","","","","","","","","","","",""
"null","","292368","SARL_v6ne1kg4lj","msl000084","rlPractice","","","img/black_2bandit_a2.png","null","img/black_2bandit_a2.png","","prac","","","75","","","","","","","","","","","","","","","","",""
"null","","293123","SARL_v6ne1kg4lj","msl000084","feedback","","","img/tooSlow.png","null","","na","prac","","","","","","","","","","","","","","","","","","","",""
"null","","293279","SARL_v6ne1kg4lj","msl000084","fixation","","","img/fixation.png","null","","","prac","","","","","","","","","","","","","","","","","","","",""
"null","","294785","SARL_v6ne1kg4lj","msl000084","rlPractice","","","img/black_2bandit_a2.png","null","img/black_2bandit_a2.png","","prac","","","75","","","","","","","","","","","","","","","","",""
"null","","295539","SARL_v6ne1kg4lj","msl000084","feedback","","","img/tooSlow.png","null","","na","prac","","","","","","","","","","","","","","","","","","","",""
"null","","295695","SARL_v6ne1kg4lj","msl000084","fixation","","","img/fixation.png","null","","","prac","","","","","","","","","","","","","","","","","","","",""
"null","","297200","SARL_v6ne1kg4lj","msl000084","rlPractice","","","img/black_2bandit_a2.png","null","img/black_2bandit_a2.png","","prac","","","75","","","","","","","","","","","","","","","","",""
"null","","297956","SARL_v6ne1kg4lj","msl000084","feedback","","","img/tooSlow.png","null","","na","prac","","","","","","","","","","","","","","","","","","","",""
"null","","298110","SARL_v6ne1kg4lj","msl000084","fixation","","","img/fixation.png","null","","","prac","","","","","","","","","","","","","","","","","","","",""
"null","","299615","SARL_v6ne1kg4lj","msl000084","rlPractice","","","img/black_2bandit_a2.png","null","img/black_2bandit_a2.png","","prac","","","75","","","","","","","","","","","","","","","","",""
"null","","300370","SARL_v6ne1kg4lj","msl000084","feedback","","","img/tooSlow.png","null","","na","prac","","","","","","","","","","","","","","","","","","","",""
"null","","300525","SARL_v6ne1kg4lj","msl000084","fixation","","","img/fixation.png","null","","","prac","","","","","","","","","","","","","","","","","","","",""
"null","","302031","SARL_v6ne1kg4lj","msl000084","rlPractice","","","img/black_2bandit_a2.png","null","img/black_2bandit_a2.png","","prac","","","75","","","","","","","","","","","","","","","","",""
"null","","302786","SARL_v6ne1kg4lj","msl000084","feedback","","","img/tooSlow.png","null","","na","prac","","","","","","","","","","","","","","","","","","","",""
"null","","302942","SARL_v6ne1kg4lj","msl000084","fixation","","","img/fixation.png","null","","","prac","","","","","","","","","","","","","","","","","","","",""
"304","","303250","SARL_v6ne1kg4lj","msl000084","rlPractice","","","img/black_2bandit_a2.png","75","img/black_2bandit_a2.png","","prac","","","75","","","","","","","","","","","","","","","","",""
"null","","304005","SARL_v6ne1kg4lj","msl000084","feedback","","","img/yay_R_a.png","null","","na","prac","","","","","","","","","","","","","","","","","","","",""
"null","","304162","SARL_v6ne1kg4lj","msl000084","fixation","","","img/fixation.png","null","","","prac","","","","","","","","","","","","","","","","","","","",""
"21933","","326099","SARL_v6ne1kg4lj","msl000084","","","","","","","","prac","","","","","","","","","","","","","","","","","","","",""
"782","","326887","SARL_v6ne1kg4lj","msl000084","mixAttFreqPrac","","","img/orange_2bandit_a2.png","70","img/orange_2bandit_a2.png","70","prac","","","","","","","","","","","","","","","","","","","",""
"782","","326910","SARL_v6ne1kg4lj","msl000084","freqPrac_resp","","","img/orange_2bandit_a.png","70","img/orange_2bandit_a.png","70","prac","","","","","","","","","","","","","","","","","","","",""
"null","","327065","SARL_v6ne1kg4lj","msl000084","fixation","","","img/fixation.png","null","","","prac","","","","","","","","","","","","","","","","","","","",""
"384","","327455","SARL_v6ne1kg4lj","msl000084","mixAttInfreqPrac","","","img/green_2bandit_a2.png","68","img/green_2bandit_a2.png","68","prac","","","","","","","","","","","","","","","","","","","",""
"384","","327877","SARL_v6ne1kg4lj","msl000084","infreqPrac_resp","","","img/green_2bandit_a.png","68","img/orange_2bandit_a.png","68","prac","","","","","","","","","","","","","","","","","","","",""
"null","","328032","SARL_v6ne1kg4lj","msl000084","fixation","","","img/fixation.png","null","","","prac","","","","","","","","","","","","","","","","","","","",""
"381","","328417","SARL_v6ne1kg4lj","msl000084","mixAttInfreqPrac","","","img/green_2bandit_a2.png","68","img/green_2bandit_a2.png","68","prac","","","","","","","","","","","","","","","","","","","",""
"381","","328842","SARL_v6ne1kg4lj","msl000084","infreqPrac_resp","","","img/green_2bandit_a.png","68","img/orange_2bandit_a.png","68","prac","","","","","","","","","","","","","","","","","","","",""
"null","","328996","SARL_v6ne1kg4lj","msl000084","fixation","","","img/fixation.png","null","","","prac","","","","","","","","","","","","","","","","","","","",""
"340","","329340","SARL_v6ne1kg4lj","msl000084","mixAttInfreqPrac","","","img/green_2bandit_a2.png","68","img/green_2bandit_a2.png","68","prac","","","","","","","","","","","","","","","","","","","",""
"340","","329806","SARL_v6ne1kg4lj","msl000084","infreqPrac_resp","","","img/green_2bandit_a.png","68","img/orange_2bandit_a.png","68","prac","","","","","","","","","","","","","","","","","","","",""
"null","","329961","SARL_v6ne1kg4lj","msl000084","fixation","","","img/fixation.png","null","","","prac","","","","","","","","","","","","","","","","","","","",""
"311","","330276","SARL_v6ne1kg4lj","msl000084","mixAttFreqPrac","","","img/orange_2bandit_a2.png","70","img/orange_2bandit_a2.png","70","prac","","","","","","","","","","","","","","","","","","","",""
"311","","330771","SARL_v6ne1kg4lj","msl000084","freqPrac_resp","","","img/orange_2bandit_a.png","70","img/orange_2bandit_a.png","70","prac","","","","","","","","","","","","","","","","","","","",""
"null","","330926","SARL_v6ne1kg4lj","msl000084","fixation","","","img/fixation.png","null","","","prac","","","","","","","","","","","","","","","","","","","",""
"1025","","331956","SARL_v6ne1kg4lj","msl000084","mixRLPractice","","","img/black_2bandit_a2.png","74","img/black_2bandit_a2.png","","prac","","","","","","","","","","","","","","","","","","","",""
"null","","332711","SARL_v6ne1kg4lj","msl000084","feedback","","","img/yay_L_a.png","null","","na","prac","","","","","","","","","","","","","","","","","","","",""
"614","","333331","SARL_v6ne1kg4lj","msl000084","mixAttFreqPrac","","","img/orange_2bandit_a2.png","70","img/orange_2bandit_a2.png","70","prac","","","","","","","","","","","","","","","","","","","",""
"614","","333522","SARL_v6ne1kg4lj","msl000084","freqPrac_resp","","","img/orange_2bandit_a.png","70","img/orange_2bandit_a.png","70","prac","","","","","","","","","","","","","","","","","","","",""
"null","","333678","SARL_v6ne1kg4lj","msl000084","fixation","","","img/fixation.png","null","","","prac","","","","","","","","","","","","","","","","","","","",""
"645","","334327","SARL_v6ne1kg4lj","msl000084","mixAttInfreqPrac","","","img/green_2bandit_a2.png","68","img/green_2bandit_a2.png","68","prac","","","","","","","","","","","","","","","","","","","",""
"645","","334488","SARL_v6ne1kg4lj","msl000084","infreqPrac_resp","","","img/green_2bandit_a.png","68","img/orange_2bandit_a.png","68","prac","","","","","","","","","","","","","","","","","","","",""
"null","","334642","SARL_v6ne1kg4lj","msl000084","fixation","","","img/fixation.png","null","","","prac","","","","","","","","","","","","","","","","","","","",""
"515","","335163","SARL_v6ne1kg4lj","msl000084","mixAttFreqPrac","","","img/orange_2bandit_a2.png","70","img/orange_2bandit_a2.png","70","prac","","","","","","","","","","","","","","","","","","","",""
"515","","335452","SARL_v6ne1kg4lj","msl000084","freqPrac_resp","","","img/orange_2bandit_a.png","70","img/orange_2bandit_a.png","70","prac","","","","","","","","","","","","","","","","","","","",""
"null","","335607","SARL_v6ne1kg4lj","msl000084","fixation","","","img/fixation.png","null","","","prac","","","","","","","","","","","","","","","","","","","",""
"458","","336071","SARL_v6ne1kg4lj","msl000084","mixAttFreqPrac","","","img/orange_2bandit_a2.png","70","img/orange_2bandit_a2.png","70","prac","","","","","","","","","","","","","","","","","","","",""
"458","","336419","SARL_v6ne1kg4lj","msl000084","freqPrac_resp","","","img/orange_2bandit_a.png","70","img/orange_2bandit_a.png","70","prac","","","","","","","","","","","","","","","","","","","",""
"null","","336574","SARL_v6ne1kg4lj","msl000084","fixation","","","img/fixation.png","null","","","prac","","","","","","","","","","","","","","","","","","","",""
"370","","336949","SARL_v6ne1kg4lj","msl000084","mixAttInfreqPrac","","","img/green_2bandit_a2.png","68","img/green_2bandit_a2.png","68","prac","","","","","","","","","","","","","","","","","","","",""
"370","","337385","SARL_v6ne1kg4lj","msl000084","infreqPrac_resp","","","img/green_2bandit_a.png","68","img/orange_2bandit_a.png","68","prac","","","","","","","","","","","","","","","","","","","",""
"null","","337541","SARL_v6ne1kg4lj","msl000084","fixation","","","img/fixation.png","null","","","prac","","","","","","","","","","","","","","","","","","","",""
"748","","338294","SARL_v6ne1kg4lj","msl000084","mixRLPractice","","","img/black_2bandit_a2.png","75","img/black_2bandit_a2.png","","prac","","","","","","","","","","","","","","","","","","","",""
"null","","339050","SARL_v6ne1kg4lj","msl000084","feedback","","","img/yay_R_a.png","null","","na","prac","","","","","","","","","","","","","","","","","","","",""
"23094","","362150","SARL_v6ne1kg4lj","msl000084","","","","","","","","prac","","","","","","","","","","","","","","","","","","","",""
"432","","362586","SARL_v6ne1kg4lj","msl000084","freq","","","img/orange_2bandit_a2.png","70","","70","test","1","","","square","circle","1","1","1","1","1","","","","","","","","","",""
"null","","362960","SARL_v6ne1kg4lj","msl000084","freq_resp","","","img/orange_2bandit_a.png","70","img/orange_2bandit_a.png","70","test","","","","","","","","","1","","","","","","","","","","",""
"null","","363115","SARL_v6ne1kg4lj","msl000084","fixation","","","img/fixation.png","null","","","test","","","","","","","","","","","","","","","","","","","",""
"381","","363500","SARL_v6ne1kg4lj","msl000084","freq","","","img/orange_2bandit_a2.png","70","","70","test","1","","","square","circle","2","2","2","1","1","","","","","","","","","",""
"null","","363924","SARL_v6ne1kg4lj","msl000084","freq_resp","","","img/orange_2bandit_a.png","70","img/orange_2bandit_a.png","70","test","","","","","","","","","1","","","","","","","","","","",""
"null","","364080","SARL_v6ne1kg4lj","msl000084","fixation","","","img/fixation.png","null","","","test","","","","","","","","","","","","","","","","","","","",""
"372","","364457","SARL_v6ne1kg4lj","msl000084","freq","","","img/orange_2bandit_a2.png","70","","70","test","1","","","square","circle","3","3","3","1","1","","","","","","","","","",""
"null","","364890","SARL_v6ne1kg4lj","msl000084","freq_resp","","","img/orange_2bandit_a.png","70","img/orange_2bandit_a.png","70","test","","","","","","","","","1","","","","","","","","","","",""
"null","","365045","SARL_v6ne1kg4lj","msl000084","fixation","","","img/fixation.png","null","","","test","","","","","","","","","","","","","","","","","","","",""
"358","","365408","SARL_v6ne1kg4lj","msl000084","infreq","","","img/green_2bandit_a2.png","68","","68","test","1","","","square","circle","4","4","4","1","1","","","","","","","","","",""
"null","","365855","SARL_v6ne1kg4lj","msl000084","infreq_resp","","","img/green_2bandit_a.png","68","img/green_2bandit_a.png","68","test","","","","","","","","","1","","","","","","","","","","",""
"null","","366011","SARL_v6ne1kg4lj","msl000084","fixation","","","img/fixation.png","null","","","test","","","","","","","","","","","","","","","","","","","",""
"420","","366435","SARL_v6ne1kg4lj","msl000084","freq","","","img/orange_2bandit_a2.png","70","","70","test","1","","","square","circle","5","5","5","1","1","","","","","","","","","",""
"null","","366820","SARL_v6ne1kg4lj","msl000084","freq_resp","","","img/orange_2bandit_a.png","70","img/orange_2bandit_a.png","70","test","","","","","","","","","1","","","","","","","","","","",""
"null","","366975","SARL_v6ne1kg4lj","msl000084","fixation","","","img/fixation.png","null","","","test","","","","","","","","","","","","","","","","","","","",""
"361","","367339","SARL_v6ne1kg4lj","msl000084","freq","","","img/orange_2bandit_a2.png","70","","70","test","1","","","square","circle","6","6","6","1","1","","","","","","","","","",""
"null","","367784","SARL_v6ne1kg4lj","msl000084","freq_resp","","","img/orange_2bandit_a.png","70","img/orange_2bandit_a.png","70","test","","","","","","","","","1","","","","","","","","","","",""
"null","","367939","SARL_v6ne1kg4lj","msl000084","fixation","","","img/fixation.png","null","","","test","","","","","","","","","","","","","","","","","","","",""
"388","","368332","SARL_v6ne1kg4lj","msl000084","freq","","","img/orange_2bandit_a2.png","70","","70","test","1","","","square","circle","7","7","7","1","1","","","","","","","","","",""
"null","","368749","SARL_v6ne1kg4lj","msl000084","freq_resp","","","img/orange_2bandit_a.png","70","img/orange_2bandit_a.png","70","test","","","","","","","","","1","","","","","","","","","","",""
"null","","368905","SARL_v6ne1kg4lj","msl000084","fixation","","","img/fixation.png","null","","","test","","","","","","","","","","","","","","","","","","","",""
"370","","369280","SARL_v6ne1kg4lj","msl000084","freq","","","img/orange_2bandit_a2.png","70","","70","test","1","","","square","circle","8","8","8","1","1","","","","","","","","","",""
"null","","369714","SARL_v6ne1kg4lj","msl000084","freq_resp","","","img/orange_2bandit_a.png","70","img/orange_2bandit_a.png","70","test","","","","","","","","","1","","","","","","","","","","",""
"null","","369869","SARL_v6ne1kg4lj","msl000084","fixation","","","img/fixation.png","null","","","test","","","","","","","","","","","","","","","","","","","",""
"392","","370266","SARL_v6ne1kg4lj","msl000084","freq","","","img/orange_2bandit_a2.png","70","","70","test","1","","","square","circle","9","9","9","1","1","","","","","","","","","",""
"null","","370680","SARL_v6ne1kg4lj","msl000084","freq_resp","","","img/orange_2bandit_a.png","70","img/orange_2bandit_a.png","70","test","","","","","","","","","1","","","","","","","","","","",""
"null","","370834","SARL_v6ne1kg4lj","msl000084","fixation","","","img/fixation.png","null","","","test","","","","","","","","","","","","","","","","","","","",""
"338","","371178","SARL_v6ne1kg4lj","msl000084","freq","","","img/orange_2bandit_a2.png","70","","70","test","1","","","square","circle","10","10","10","1","1","","","","","","","","","",""
"null","","371645","SARL_v6ne1kg4lj","msl000084","freq_resp","","","img/orange_2bandit_a.png","70","img/orange_2bandit_a.png","70","test","","","","","","","","","1","","","","","","","","","","",""
"null","","371800","SARL_v6ne1kg4lj","msl000084","fixation","","","img/fixation.png","null","","","test","","","","","","","","","","","","","","","","","","","",""
"377","","372182","SARL_v6ne1kg4lj","msl000084","freq","","","img/orange_2bandit_a2.png","70","","70","test","1","","","square","circle","11","11","11","1","1","","","","","","","","","",""
"null","","372610","SARL_v6ne1kg4lj","msl000084","freq_resp","","","img/orange_2bandit_a.png","70","img/orange_2bandit_a.png","70","test","","","","","","","","","1","","","","","","","","","","",""
"null","","372765","SARL_v6ne1kg4lj","msl000084","fixation","","","img/fixation.png","null","","","test","","","","","","","","","","","","","","","","","","","",""
"340","","373111","SARL_v6ne1kg4lj","msl000084","freq","","","img/orange_2bandit_a2.png","70","","70","test","1","","","square","circle","12","12","12","1","1","","","","","","","","","",""
"null","","373576","SARL_v6ne1kg4lj","msl000084","freq_resp","","","img/orange_2bandit_a.png","70","img/orange_2bandit_a.png","70","test","","","","","","","","","1","","","","","","","","","","",""
"null","","373731","SARL_v6ne1kg4lj","msl000084","fixation","","","img/fixation.png","null","","","test","","","","","","","","","","","","","","","","","","","",""
"391","","374128","SARL_v6ne1kg4lj","msl000084","infreq","","","img/green_2bandit_a2.png","68","","68","test","1","","","square","circle","13","13","13","1","1","","","","","","","","","",""
"null","","374542","SARL_v6ne1kg4lj","msl000084","infreq_resp","","","img/green_2bandit_a.png","68","img/green_2bandit_a.png","68","test","","","","","","","","","1","","","","","","","","","","",""
"null","","374698","SARL_v6ne1kg4lj","msl000084","fixation","","","img/fixation.png","null","","","test","","","","","","","","","","","","","","","","","","","",""
"466","","375169","SARL_v6ne1kg4lj","msl000084","freq","","","img/orange_2bandit_a2.png","70","","70","test","1","","","square","circle","14","14","14","1","1","","","","","","","","","",""
"null","","375509","SARL_v6ne1kg4lj","msl000084","freq_resp","","","img/orange_2bandit_a.png","70","img/orange_2bandit_a.png","70","test","","","","","","","","","1","","","","","","","","","","",""
"null","","375666","SARL_v6ne1kg4lj","msl000084","fixation","","","img/fixation.png","null","","","test","","","","","","","","","","","","","","","","","","","",""
"334","","376004","SARL_v6ne1kg4lj","msl000084","freq","","","img/orange_2bandit_a2.png","70","","70","test","1","","","square","circle","15","15","15","1","1","","","","","","","","","",""
"null","","376476","SARL_v6ne1kg4lj","msl000084","freq_resp","","","img/orange_2bandit_a.png","70","img/orange_2bandit_a.png","70","test","","","","","","","","","1","","","","","","","","","","",""
"null","","376631","SARL_v6ne1kg4lj","msl000084","fixation","","","img/fixation.png","null","","","test","","","","","","","","","","","","","","","","","","","",""
"325","","376961","SARL_v6ne1kg4lj","msl000084","freq","","","img/orange_2bandit_a2.png","70","","70","test","1","","","square","circle","16","16","16","1","1","","","","","","","","","",""
"null","","377441","SARL_v6ne1kg4lj","msl000084","freq_resp","","","img/orange_2bandit_a.png","70","img/orange_2bandit_a.png","70","test","","","","","","","","","1","","","","","","","","","","",""
"null","","377597","SARL_v6ne1kg4lj","msl000084","fixation","","","img/fixation.png","null","","","test","","","","","","","","","","","","","","","","","","","",""
"375","","377977","SARL_v6ne1kg4lj","msl000084","freq","","","img/orange_2bandit_a2.png","70","","70","test","1","","","square","circle","17","17","17","1","1","","","","","","","","","",""
"null","","378407","SARL_v6ne1kg4lj","msl000084","freq_resp","","","img/orange_2bandit_a.png","70","img/orange_2bandit_a.png","70","test","","","","","","","","","1","","","","","","","","","","",""
"null","","378562","SARL_v6ne1kg4lj","msl000084","fixation","","","img/fixation.png","null","","","test","","","","","","","","","","","","","","","","","","","",""
"288","","378855","SARL_v6ne1kg4lj","msl000084","freq","","","img/orange_2bandit_a2.png","70","","70","test","1","","","square","circle","18","18","18","1","1","","","","","","","","","",""
"null","","379373","SARL_v6ne1kg4lj","msl000084","freq_resp","","","img/orange_2bandit_a.png","70","img/orange_2bandit_a.png","70","test","","","","","","","","","1","","","","","","","","","","",""
"null","","379528","SARL_v6ne1kg4lj","msl000084","fixation","","","img/fixation.png","null","","","test","","","","","","","","","","","","","","","","","","","",""
"408","","379941","SARL_v6ne1kg4lj","msl000084","infreq","","","img/green_2bandit_a2.png","68","","68","test","1","","","square","circle","19","19","19","1","1","","","","","","","","","",""
"null","","380337","SARL_v6ne1kg4lj","msl000084","infreq_resp","","","img/green_2bandit_a.png","68","img/green_2bandit_a.png","68","test","","","","","","","","","1","","","","","","","","","","",""
"null","","380493","SARL_v6ne1kg4lj","msl000084","fixation","","","img/fixation.png","null","","","test","","","","","","","","","","","","","","","","","","","",""
"450","","380949","SARL_v6ne1kg4lj","msl000084","freq","","","img/orange_2bandit_a2.png","70","","70","test","1","","","square","circle","20","20","20","1","1","","","","","","","","","",""
"null","","381304","SARL_v6ne1kg4lj","msl000084","freq_resp","","","img/orange_2bandit_a.png","70","img/orange_2bandit_a.png","70","test","","","","","","","","","1","","","","","","","","","","",""
"null","","381459","SARL_v6ne1kg4lj","msl000084","fixation","","","img/fixation.png","null","","","test","","","","","","","","","","","","","","","","","","","",""
"467","","381931","SARL_v6ne1kg4lj","msl000084","freq","","","img/orange_2bandit_a2.png","70","","70","test","1","","","square","circle","21","21","21","1","1","","","","","","","","","",""
"null","","382269","SARL_v6ne1kg4lj","msl000084","freq_resp","","","img/orange_2bandit_a.png","70","img/orange_2bandit_a.png","70","test","","","","","","","","","1","","","","","","","","","","",""
"null","","382425","SARL_v6ne1kg4lj","msl000084","fixation","","","img/fixation.png","null","","","test","","","","","","","","","","","","","","","","","","","",""
"362","","382791","SARL_v6ne1kg4lj","msl000084","freq","","","img/orange_2bandit_a2.png","70","","70","test","1","","","square","circle","22","22","22","1","1","","","","","","","","","",""
"null","","383233","SARL_v6ne1kg4lj","msl000084","freq_resp","","","img/orange_2bandit_a.png","70","img/orange_2bandit_a.png","70","test","","","","","","","","","1","","","","","","","","","","",""
"null","","383389","SARL_v6ne1kg4lj","msl000084","fixation","","","img/fixation.png","null","","","test","","","","","","","","","","","","","","","","","","","",""
"445","","383838","SARL_v6ne1kg4lj","msl000084","freq","","","img/orange_2bandit_a2.png","70","","70","test","1","","","square","circle","23","23","23","1","1","","","","","","","","","",""
"null","","384199","SARL_v6ne1kg4lj","msl000084","freq_resp","","","img/orange_2bandit_a.png","70","img/orange_2bandit_a.png","70","test","","","","","","","","","1","","","","","","","","","","",""
"null","","384354","SARL_v6ne1kg4lj","msl000084","fixation","","","img/fixation.png","null","","","test","","","","","","","","","","","","","","","","","","","",""
"303","","384662","SARL_v6ne1kg4lj","msl000084","freq","","","img/orange_2bandit_a2.png","70","","70","test","1","","","square","circle","24","24","24","1","1","","","","","","","","","",""
"null","","385164","SARL_v6ne1kg4lj","msl000084","freq_resp","","","img/orange_2bandit_a.png","70","img/orange_2bandit_a.png","70","test","","","","","","","","","1","","","","","","","","","","",""
"null","","385319","SARL_v6ne1kg4lj","msl000084","fixation","","","img/fixation.png","null","","","test","","","","","","","","","","","","","","","","","","","",""
"275","","385599","SARL_v6ne1kg4lj","msl000084","freq","","","img/orange_2bandit_a2.png","70","","70","test","1","","","square","circle","25","25","25","1","1","","","","","","","","","",""
"null","","386131","SARL_v6ne1kg4lj","msl000084","freq_resp","","","img/orange_2bandit_a.png","70","img/orange_2bandit_a.png","70","test","","","","","","","","","1","","","","","","","","","","",""
"null","","386287","SARL_v6ne1kg4lj","msl000084","fixation","","","img/fixation.png","null","","","test","","","","","","","","","","","","","","","","","","","",""
"708","","387000","SARL_v6ne1kg4lj","msl000084","rl","","","img/black_2bandit_a2.png","74","","0","test","","","1","square","circle","26","","0","1","","74","0.8","0.2","0.14738667851778542","0.2","0.8","0.2","square","1","0"
"null","","387755","SARL_v6ne1kg4lj","msl000084","feedback","","","img/yay_L_a.png","null","","na","test","","","","","","","","","1","","74","0.8","0.2","","","","0.2","","1",""
"674","","388434","SARL_v6ne1kg4lj","msl000084","freq","","","img/orange_2bandit_a2.png","68","","70","test","0","","","square","circle","27","26","1","2","0.9615384615384616","","","","","","","","","",""
"null","","388566","SARL_v6ne1kg4lj","msl000084","freq_resp","","","img/orange_2bandit_a.png","68","img/orange_2bandit_a.png","70","test","","","","","","","","","2","","","","","","","","","","",""
"null","","388722","SARL_v6ne1kg4lj","msl000084","fixation","","","img/fixation.png","null","","","test","","","","","","","","","","","","","","","","","","","",""
"421","","389148","SARL_v6ne1kg4lj","msl000084","freq","","","img/orange_2bandit_a2.png","70","","70","test","1","","","square","circle","28","27","2","2","0.9629629629629629","","","","","","","","","",""
"null","","389531","SARL_v6ne1kg4lj","msl000084","freq_resp","","","img/orange_2bandit_a.png","70","img/orange_2bandit_a.png","70","test","","","","","","","","","2","","","","","","","","","","",""
"null","","389687","SARL_v6ne1kg4lj","msl000084","fixation","","","img/fixation.png","null","","","test","","","","","","","","","","","","","","","","","","","",""
"335","","390028","SARL_v6ne1kg4lj","msl000084","freq","","","img/orange_2bandit_a2.png","70","","70","test","1","","","square","circle","29","28","3","2","0.9642857142857143","","","","","","","","","",""
"null","","390499","SARL_v6ne1kg4lj","msl000084","freq_resp","","","img/orange_2bandit_a.png","70","img/orange_2bandit_a.png","70","test","","","","","","","","","2","","","","","","","","","","",""
"null","","390653","SARL_v6ne1kg4lj","msl000084","fixation","","","img/fixation.png","null","","","test","","","","","","","","","","","","","","","","","","","",""
"356","","391013","SARL_v6ne1kg4lj","msl000084","freq","","","img/orange_2bandit_a2.png","70","","70","test","1","","","square","circle","30","29","4","2","0.9655172413793104","","","","","","","","","",""
"null","","391465","SARL_v6ne1kg4lj","msl000084","freq_resp","","","img/orange_2bandit_a.png","70","img/orange_2bandit_a.png","70","test","","","","","","","","","2","","","","","","","","","","",""
"null","","391620","SARL_v6ne1kg4lj","msl000084","fixation","","","img/fixation.png","null","","","test","","","","","","","","","","","","","","","","","","","",""
"295","","391920","SARL_v6ne1kg4lj","msl000084","freq","","","img/orange_2bandit_a2.png","70","","70","test","1","","","square","circle","31","30","5","2","0.9666666666666667","","","","","","","","","",""
"null","","392431","SARL_v6ne1kg4lj","msl000084","freq_resp","","","img/orange_2bandit_a.png","70","img/orange_2bandit_a.png","70","test","","","","","","","","","2","","","","","","","","","","",""
"null","","392585","SARL_v6ne1kg4lj","msl000084","fixation","","","img/fixation.png","null","","","test","","","","","","","","","","","","","","","","","","","",""
"291","","392880","SARL_v6ne1kg4lj","msl000084","freq","","","img/orange_2bandit_a2.png","70","","70","test","1","","","square","circle","32","31","6","2","0.967741935483871","","","","","","","","","",""
"null","","393395","SARL_v6ne1kg4lj","msl000084","freq_resp","","","img/orange_2bandit_a.png","70","img/orange_2bandit_a.png","70","test","","","","","","","","","2","","","","","","","","","","",""
"null","","393550","SARL_v6ne1kg4lj","msl000084","fixation","","","img/fixation.png","null","","","test","","","","","","","","","","","","","","","","","","","",""
"281","","393837","SARL_v6ne1kg4lj","msl000084","infreq","","","img/green_2bandit_a2.png","70","","68","test","0","","","square","circle","33","32","7","2","0.9375","","","","","","","","","",""
"null","","394361","SARL_v6ne1kg4lj","msl000084","infreq_resp","","","img/green_2bandit_a.png","70","img/green_2bandit_a.png","68","test","","","","","","","","","2","","","","","","","","","","",""
"null","","394517","SARL_v6ne1kg4lj","msl000084","fixation","","","img/fixation.png","null","","","test","","","","","","","","","","","","","","","","","","","",""
"442","","394965","SARL_v6ne1kg4lj","msl000084","freq","","","img/orange_2bandit_a2.png","70","","70","test","1","","","square","circle","34","33","8","2","0.9393939393939394","","","","","","","","","",""
"null","","395329","SARL_v6ne1kg4lj","msl000084","freq_resp","","","img/orange_2bandit_a.png","70","img/orange_2bandit_a.png","70","test","","","","","","","","","2","","","","","","","","","","",""
"null","","395484","SARL_v6ne1kg4lj","msl000084","fixation","","","img/fixation.png","null","","","test","","","","","","","","","","","","","","","","","","","",""
"376","","395865","SARL_v6ne1kg4lj","msl000084","freq","","","img/orange_2bandit_a2.png","70","","70","test","1","","","square","circle","35","34","9","2","0.9411764705882353","","","","","","","","","",""
"null","","396293","SARL_v6ne1kg4lj","msl000084","freq_resp","","","img/orange_2bandit_a.png","70","img/orange_2bandit_a.png","70","test","","","","","","","","","2","","","","","","","","","","",""
"null","","396448","SARL_v6ne1kg4lj","msl000084","fixation","","","img/fixation.png","null","","","test","","","","","","","","","","","","","","","","","","","",""
"309","","396762","SARL_v6ne1kg4lj","msl000084","freq","","","img/orange_2bandit_a2.png","70","","70","test","1","","","square","circle","36","35","10","2","0.9428571428571428","","","","","","","","","",""
"null","","397259","SARL_v6ne1kg4lj","msl000084","freq_resp","","","img/orange_2bandit_a.png","70","img/orange_2bandit_a.png","70","test","","","","","","","","","2","","","","","","","","","","",""
"null","","397414","SARL_v6ne1kg4lj","msl000084","fixation","","","img/fixation.png","null","","","test","","","","","","","","","","","","","","","","","","","",""
"343","","397764","SARL_v6ne1kg4lj","msl000084","freq","","","img/orange_2bandit_a2.png","70","","70","test","1","","","square","circle","37","36","11","2","0.9444444444444444","","","","","","","","","",""
"null","","398226","SARL_v6ne1kg4lj","msl000084","freq_resp","","","img/orange_2bandit_a.png","70","img/orange_2bandit_a.png","70","test","","","","","","","","","2","","","","","","","","","","",""
"null","","398380","SARL_v6ne1kg4lj","msl000084","fixation","","","img/fixation.png","null","","","test","","","","","","","","","","","","","","","","","","","",""
"303","","398689","SARL_v6ne1kg4lj","msl000084","freq","","","img/orange_2bandit_a2.png","70","","70","test","1","","","square","circle","38","37","12","2","0.9459459459459459","","","","","","","","","",""
"null","","399191","SARL_v6ne1kg4lj","msl000084","freq_resp","","","img/orange_2bandit_a.png","70","img/orange_2bandit_a.png","70","test","","","","","","","","","2","","","","","","","","","","",""
"null","","399347","SARL_v6ne1kg4lj","msl000084","fixation","","","img/fixation.png","null","","","test","","","","","","","","","","","","","","","","","","","",""
"346","","399697","SARL_v6ne1kg4lj","msl000084","freq","","","img/orange_2bandit_a2.png","70","","70","test","1","","","square","circle","39","38","13","2","0.9473684210526315","","","","","","","","","",""
"null","","400157","SARL_v6ne1kg4lj","msl000084","freq_resp","","","img/orange_2bandit_a.png","70","img/orange_2bandit_a.png","70","test","","","","","","","","","2","","","","","","","","","","",""
"null","","400312","SARL_v6ne1kg4lj","msl000084","fixation","","","img/fixation.png","null","","","test","","","","","","","","","","","","","","","","","","","",""
"290","","400607","SARL_v6ne1kg4lj","msl000084","freq","","","img/orange_2bandit_a2.png","70","","70","test","1","","","square","circle","40","39","14","2","0.9487179487179487","","","","","","","","","",""
"null","","401122","SARL_v6ne1kg4lj","msl000084","freq_resp","","","img/orange_2bandit_a.png","70","img/orange_2bandit_a.png","70","test","","","","","","","","","2","","","","","","","","","","",""
"null","","401278","SARL_v6ne1kg4lj","msl000084","fixation","","","img/fixation.png","null","","","test","","","","","","","","","","","","","","","","","","","",""
"336","","401618","SARL_v6ne1kg4lj","msl000084","freq","","","img/orange_2bandit_a2.png","70","","70","test","1","","","square","circle","41","40","15","2","0.95","","","","","","","","","",""
"null","","402088","SARL_v6ne1kg4lj","msl000084","freq_resp","","","img/orange_2bandit_a.png","70","img/orange_2bandit_a.png","70","test","","","","","","","","","2","","","","","","","","","","",""
"null","","402243","SARL_v6ne1kg4lj","msl000084","fixation","","","img/fixation.png","null","","","test","","","","","","","","","","","","","","","","","","","",""
"394","","402642","SARL_v6ne1kg4lj","msl000084","infreq","","","img/green_2bandit_a2.png","68","","68","test","1","","","square","circle","42","41","16","2","0.9512195121951219","","","","","","","","","",""
"null","","403053","SARL_v6ne1kg4lj","msl000084","infreq_resp","","","img/green_2bandit_a.png","68","img/green_2bandit_a.png","68","test","","","","","","","","","2","","","","","","","","","","",""
"null","","403209","SARL_v6ne1kg4lj","msl000084","fixation","","","img/fixation.png","null","","","test","","","","","","","","","","","","","","","","","","","",""
"459","","403672","SARL_v6ne1kg4lj","msl000084","freq","","","img/orange_2bandit_a2.png","70","","70","test","1","","","square","circle","43","42","17","2","0.9523809523809523","","","","","","","","","",""
"null","","404019","SARL_v6ne1kg4lj","msl000084","freq_resp","","","img/orange_2bandit_a.png","70","img/orange_2bandit_a.png","70","test","","","","","","","","","2","","","","","","","","","","",""
"null","","404174","SARL_v6ne1kg4lj","msl000084","fixation","","","img/fixation.png","null","","","test","","","","","","","","","","","","","","","","","","","",""
"341","","404520","SARL_v6ne1kg4lj","msl000084","freq","","","img/orange_2bandit_a2.png","70","","70","test","1","","","square","circle","44","43","18","2","0.9534883720930233","","","","","","","","","",""
"null","","404984","SARL_v6ne1kg4lj","msl000084","freq_resp","","","img/orange_2bandit_a.png","70","img/orange_2bandit_a.png","70","test","","","","","","","","","2","","","","","","","","","","",""
"null","","405140","SARL_v6ne1kg4lj","msl000084","fixation","","","img/fixation.png","null","","","test","","","","","","","","","","","","","","","","","","","",""
"348","","405492","SARL_v6ne1kg4lj","msl000084","freq","","","img/orange_2bandit_a2.png","70","","70","test","1","","","square","circle","45","44","19","2","0.9545454545454546","","","","","","","","","",""
"null","","405949","SARL_v6ne1kg4lj","msl000084","freq_resp","","","img/orange_2bandit_a.png","70","img/orange_2bandit_a.png","70","test","","","","","","","","","2","","","","","","","","","","",""
"null","","406106","SARL_v6ne1kg4lj","msl000084","fixation","","","img/fixation.png","null","","","test","","","","","","","","","","","","","","","","","","","",""
"436","","406545","SARL_v6ne1kg4lj","msl000084","infreq","","","img/green_2bandit_a2.png","68","","68","test","1","","","square","circle","46","45","20","2","0.9555555555555556","","","","","","","","","",""
"null","","406915","SARL_v6ne1kg4lj","msl000084","infreq_resp","","","img/green_2bandit_a.png","68","img/green_2bandit_a.png","68","test","","","","","","","","","2","","","","","","","","","","",""
"null","","407070","SARL_v6ne1kg4lj","msl000084","fixation","","","img/fixation.png","null","","","test","","","","","","","","","","","","","","","","","","","",""
"395","","407470","SARL_v6ne1kg4lj","msl000084","freq","","","img/orange_2bandit_a2.png","70","","70","test","1","","","square","circle","47","46","21","2","0.9565217391304348","","","","","","","","","",""
"null","","407880","SARL_v6ne1kg4lj","msl000084","freq_resp","","","img/orange_2bandit_a.png","70","img/orange_2bandit_a.png","70","test","","","","","","","","","2","","","","","","","","","","",""
"null","","408035","SARL_v6ne1kg4lj","msl000084","fixation","","","img/fixation.png","null","","","test","","","","","","","","","","","","","","","","","","","",""
"437","","408478","SARL_v6ne1kg4lj","msl000084","infreq","","","img/green_2bandit_a2.png","68","","68","test","1","","","square","circle","48","47","22","2","0.9574468085106383","","","","","","","","","",""
"null","","408846","SARL_v6ne1kg4lj","msl000084","infreq_resp","","","img/green_2bandit_a.png","68","img/green_2bandit_a.png","68","test","","","","","","","","","2","","","","","","","","","","",""
"null","","409000","SARL_v6ne1kg4lj","msl000084","fixation","","","img/fixation.png","null","","","test","","","","","","","","","","","","","","","","","","","",""
"291","","409297","SARL_v6ne1kg4lj","msl000084","freq","","","img/orange_2bandit_a2.png","70","","70","test","1","","","square","circle","49","48","23","2","0.9583333333333334","","","","","","","","","",""
"null","","409811","SARL_v6ne1kg4lj","msl000084","freq_resp","","","img/orange_2bandit_a.png","70","img/orange_2bandit_a.png","70","test","","","","","","","","","2","","","","","","","","","","",""
"null","","409967","SARL_v6ne1kg4lj","msl000084","fixation","","","img/fixation.png","null","","","test","","","","","","","","","","","","","","","","","","","",""
"401","","410371","SARL_v6ne1kg4lj","msl000084","freq","","","img/orange_2bandit_a2.png","70","","70","test","1","","","square","circle","50","49","24","2","0.9591836734693877","","","","","","","","","",""
"null","","410776","SARL_v6ne1kg4lj","msl000084","freq_resp","","","img/orange_2bandit_a.png","70","img/orange_2bandit_a.png","70","test","","","","","","","","","2","","","","","","","","","","",""
"null","","410931","SARL_v6ne1kg4lj","msl000084","fixation","","","img/fixation.png","null","","","test","","","","","","","","","","","","","","","","","","","",""
"398","","411333","SARL_v6ne1kg4lj","msl000084","freq","","","img/orange_2bandit_a2.png","70","","70","test","1","","","square","circle","51","50","25","2","0.96","","","","","","","","","",""
"null","","411740","SARL_v6ne1kg4lj","msl000084","freq_resp","","","img/orange_2bandit_a.png","70","img/orange_2bandit_a.png","70","test","","","","","","","","","2","","","","","","","","","","",""
"null","","411896","SARL_v6ne1kg4lj","msl000084","fixation","","","img/fixation.png","null","","","test","","","","","","","","","","","","","","","","","","","",""
"547","","412448","SARL_v6ne1kg4lj","msl000084","rl","","","img/black_2bandit_a2.png","74","","0","test","","","0","square","circle","52","","0","2","","74","0.8","0.2","0.5771462011489648","0.2","0.8","0.2","square","2","0"
"null","","413204","SARL_v6ne1kg4lj","msl000084","feedback","","","img/boo_L_a.png","null","","na","test","","","","","","","","","2","","74","0.8","0.2","","","","0.2","","2",""
"404","","413613","SARL_v6ne1kg4lj","msl000084","freq","","","img/orange_2bandit_a2.png","70","","70","test","1","","","square","circle","53","51","1","3","0.9607843137254902","","","","","","","","","",""
"null","","414015","SARL_v6ne1kg4lj","msl000084","freq_resp","","","img/orange_2bandit_a.png","70","img/orange_2bandit_a.png","70","test","","","","","","","","","3","","","","","","","","","","",""
"null","","414170","SARL_v6ne1kg4lj","msl000084","fixation","","","img/fixation.png","null","","","test","","","","","","","","","","","","","","","","","","","",""
"552","","414727","SARL_v6ne1kg4lj","msl000084","infreq","","","img/green_2bandit_a2.png","68","","68","test","1","","","square","circle","54","52","2","3","0.9615384615384616","","","","","","","","","",""
"null","","414981","SARL_v6ne1kg4lj","msl000084","infreq_resp","","","img/green_2bandit_a.png","68","img/green_2bandit_a.png","68","test","","","","","","","","","3","","","","","","","","","","",""
"null","","415137","SARL_v6ne1kg4lj","msl000084","fixation","","","img/fixation.png","null","","","test","","","","","","","","","","","","","","","","","","","",""
"422","","415564","SARL_v6ne1kg4lj","msl000084","freq","","","img/orange_2bandit_a2.png","70","","70","test","1","","","square","circle","55","53","3","3","0.9622641509433962","","","","","","","","","",""
"null","","415948","SARL_v6ne1kg4lj","msl000084","freq_resp","","","img/orange_2bandit_a.png","70","img/orange_2bandit_a.png","70","test","","","","","","","","","3","","","","","","","","","","",""
"null","","416104","SARL_v6ne1kg4lj","msl000084","fixation","","","img/fixation.png","null","","","test","","","","","","","","","","","","","","","","","","","",""
"323","","416431","SARL_v6ne1kg4lj","msl000084","freq","","","img/orange_2bandit_a2.png","70","","70","test","1","","","square","circle","56","54","4","3","0.9629629629629629","","","","","","","","","",""
"null","","416914","SARL_v6ne1kg4lj","msl000084","freq_resp","","","img/orange_2bandit_a.png","70","img/orange_2bandit_a.png","70","test","","","","","","","","","3","","","","","","","","","","",""
"null","","417069","SARL_v6ne1kg4lj","msl000084","fixation","","","img/fixation.png","null","","","test","","","","","","","","","","","","","","","","","","","",""
"364","","417438","SARL_v6ne1kg4lj","msl000084","freq","","","img/orange_2bandit_a2.png","70","","70","test","1","","","square","circle","57","55","5","3","0.9636363636363636","","","","","","","","","",""
"null","","417880","SARL_v6ne1kg4lj","msl000084","freq_resp","","","img/orange_2bandit_a.png","70","img/orange_2bandit_a.png","70","test","","","","","","","","","3","","","","","","","","","","",""
"null","","418035","SARL_v6ne1kg4lj","msl000084","fixation","","","img/fixation.png","null","","","test","","","","","","","","","","","","","","","","","","","",""
"299","","418339","SARL_v6ne1kg4lj","msl000084","freq","","","img/orange_2bandit_a2.png","70","","70","test","1","","","square","circle","58","56","6","3","0.9642857142857143","","","","","","","","","",""
"null","","418846","SARL_v6ne1kg4lj","msl000084","freq_resp","","","img/orange_2bandit_a.png","70","img/orange_2bandit_a.png","70","test","","","","","","","","","3","","","","","","","","","","",""
"null","","419001","SARL_v6ne1kg4lj","msl000084","fixation","","","img/fixation.png","null","","","test","","","","","","","","","","","","","","","","","","","",""
"302","","419308","SARL_v6ne1kg4lj","msl000084","freq","","","img/orange_2bandit_a2.png","70","","70","test","1","","","square","circle","59","57","7","3","0.9649122807017544","","","","","","","","","",""
"null","","419811","SARL_v6ne1kg4lj","msl000084","freq_resp","","","img/orange_2bandit_a.png","70","img/orange_2bandit_a.png","70","test","","","","","","","","","3","","","","","","","","","","",""
"null","","419967","SARL_v6ne1kg4lj","msl000084","fixation","","","img/fixation.png","null","","","test","","","","","","","","","","","","","","","","","","","",""
"319","","420292","SARL_v6ne1kg4lj","msl000084","freq","","","img/orange_2bandit_a2.png","70","","70","test","1","","","square","circle","60","58","8","3","0.9655172413793104","","","","","","","","","",""
"null","","420779","SARL_v6ne1kg4lj","msl000084","freq_resp","","","img/orange_2bandit_a.png","70","img/orange_2bandit_a.png","70","test","","","","","","","","","3","","","","","","","","","","",""
"null","","420935","SARL_v6ne1kg4lj","msl000084","fixation","","","img/fixation.png","null","","","test","","","","","","","","","","","","","","","","","","","",""
"450","","421389","SARL_v6ne1kg4lj","msl000084","freq","","","img/orange_2bandit_a2.png","70","","70","test","1","","","square","circle","61","59","9","3","0.9661016949152542","","","","","","","","","",""
"null","","421745","SARL_v6ne1kg4lj","msl000084","freq_resp","","","img/orange_2bandit_a.png","70","img/orange_2bandit_a.png","70","test","","","","","","","","","3","","","","","","","","","","",""
"null","","421900","SARL_v6ne1kg4lj","msl000084","fixation","","","img/fixation.png","null","","","test","","","","","","","","","","","","","","","","","","","",""
"335","","422239","SARL_v6ne1kg4lj","msl000084","freq","","","img/orange_2bandit_a2.png","70","","70","test","1","","","square","circle","62","60","10","3","0.9666666666666667","","","","","","","","","",""
"null","","422711","SARL_v6ne1kg4lj","msl000084","freq_resp","","","img/orange_2bandit_a.png","70","img/orange_2bandit_a.png","70","test","","","","","","","","","3","","","","","","","","","","",""
"null","","422866","SARL_v6ne1kg4lj","msl000084","fixation","","","img/fixation.png","null","","","test","","","","","","","","","","","","","","","","","","","",""
"321","","423192","SARL_v6ne1kg4lj","msl000084","freq","","","img/orange_2bandit_a2.png","70","","70","test","1","","","square","circle","63","61","11","3","0.9672131147540983","","","","","","","","","",""
"null","","423677","SARL_v6ne1kg4lj","msl000084","freq_resp","","","img/orange_2bandit_a.png","70","img/orange_2bandit_a.png","70","test","","","","","","","","","3","","","","","","","","","","",""
"null","","423832","SARL_v6ne1kg4lj","msl000084","fixation","","","img/fixation.png","null","","","test","","","","","","","","","","","","","","","","","","","",""
"333","","424170","SARL_v6ne1kg4lj","msl000084","freq","","","img/orange_2bandit_a2.png","70","","70","test","1","","","square","circle","64","62","12","3","0.967741935483871","","","","","","","","","",""
"null","","424642","SARL_v6ne1kg4lj","msl000084","freq_resp","","","img/orange_2bandit_a.png","70","img/orange_2bandit_a.png","70","test","","","","","","","","","3","","","","","","","","","","",""
"null","","424799","SARL_v6ne1kg4lj","msl000084","fixation","","","img/fixation.png","null","","","test","","","","","","","","","","","","","","","","","","","",""
"301","","425105","SARL_v6ne1kg4lj","msl000084","infreq","","","img/green_2bandit_a2.png","68","","68","test","1","","","square","circle","65","63","13","3","0.9682539682539683","","","","","","","","","",""
"null","","425610","SARL_v6ne1kg4lj","msl000084","infreq_resp","","","img/green_2bandit_a.png","68","img/green_2bandit_a.png","68","test","","","","","","","","","3","","","","","","","","","","",""
"null","","425766","SARL_v6ne1kg4lj","msl000084","fixation","","","img/fixation.png","null","","","test","","","","","","","","","","","","","","","","","","","",""
"349","","426119","SARL_v6ne1kg4lj","msl000084","freq","","","img/orange_2bandit_a2.png","68","","70","test","0","","","square","circle","66","64","14","3","0.953125","","","","","","","","","",""
"null","","426576","SARL_v6ne1kg4lj","msl000084","freq_resp","","","img/orange_2bandit_a.png","68","img/orange_2bandit_a.png","70","test","","","","","","","","","3","","","","","","","","","","",""
"null","","426731","SARL_v6ne1kg4lj","msl000084","fixation","","","img/fixation.png","null","","","test","","","","","","","","","","","","","","","","","","","",""
"425","","427161","SARL_v6ne1kg4lj","msl000084","freq","","","img/orange_2bandit_a2.png","70","","70","test","1","","","square","circle","67","65","15","3","0.9538461538461539","","","","","","","","","",""
"null","","427542","SARL_v6ne1kg4lj","msl000084","freq_resp","","","img/orange_2bandit_a.png","70","img/orange_2bandit_a.png","70","test","","","","","","","","","3","","","","","","","","","","",""
"null","","427697","SARL_v6ne1kg4lj","msl000084","fixation","","","img/fixation.png","null","","","test","","","","","","","","","","","","","","","","","","","",""
"304","","428007","SARL_v6ne1kg4lj","msl000084","freq","","","img/orange_2bandit_a2.png","70","","70","test","1","","","square","circle","68","66","16","3","0.9545454545454546","","","","","","","","","",""
"null","","428508","SARL_v6ne1kg4lj","msl000084","freq_resp","","","img/orange_2bandit_a.png","70","img/orange_2bandit_a.png","70","test","","","","","","","","","3","","","","","","","","","","",""
"null","","428664","SARL_v6ne1kg4lj","msl000084","fixation","","","img/fixation.png","null","","","test","","","","","","","","","","","","","","","","","","","",""
"320","","428989","SARL_v6ne1kg4lj","msl000084","freq","","","img/orange_2bandit_a2.png","70","","70","test","1","","","square","circle","69","67","17","3","0.9552238805970149","","","","","","","","","",""
"null","","429473","SARL_v6ne1kg4lj","msl000084","freq_resp","","","img/orange_2bandit_a.png","70","img/orange_2bandit_a.png","70","test","","","","","","","","","3","","","","","","","","","","",""
"null","","429628","SARL_v6ne1kg4lj","msl000084","fixation","","","img/fixation.png","null","","","test","","","","","","","","","","","","","","","","","","","",""
"284","","429917","SARL_v6ne1kg4lj","msl000084","freq","","","img/orange_2bandit_a2.png","70","","70","test","1","","","square","circle","70","68","18","3","0.9558823529411765","","","","","","","","","",""
"null","","430438","SARL_v6ne1kg4lj","msl000084","freq_resp","","","img/orange_2bandit_a.png","70","img/orange_2bandit_a.png","70","test","","","","","","","","","3","","","","","","","","","","",""
"null","","430593","SARL_v6ne1kg4lj","msl000084","fixation","","","img/fixation.png","null","","","test","","","","","","","","","","","","","","","","","","","",""
"479","","431076","SARL_v6ne1kg4lj","msl000084","infreq","","","img/green_2bandit_a2.png","68","","68","test","1","","","square","circle","71","69","19","3","0.9565217391304348","","","","","","","","","",""
"null","","431403","SARL_v6ne1kg4lj","msl000084","infreq_resp","","","img/green_2bandit_a.png","68","img/green_2bandit_a.png","68","test","","","","","","","","","3","","","","","","","","","","",""
"null","","431559","SARL_v6ne1kg4lj","msl000084","fixation","","","img/fixation.png","null","","","test","","","","","","","","","","","","","","","","","","","",""
"597","","432160","SARL_v6ne1kg4lj","msl000084","freq","","","img/orange_2bandit_a2.png","70","","70","test","1","","","square","circle","72","70","20","3","0.9571428571428572","","","","","","","","","",""
"null","","432369","SARL_v6ne1kg4lj","msl000084","freq_resp","","","img/orange_2bandit_a.png","70","img/orange_2bandit_a.png","70","test","","","","","","","","","3","","","","","","","","","","",""
"null","","432525","SARL_v6ne1kg4lj","msl000084","fixation","","","img/fixation.png","null","","","test","","","","","","","","","","","","","","","","","","","",""
"377","","432907","SARL_v6ne1kg4lj","msl000084","freq","","","img/orange_2bandit_a2.png","70","","70","test","1","","","square","circle","73","71","21","3","0.9577464788732394","","","","","","","","","",""
"null","","433336","SARL_v6ne1kg4lj","msl000084","freq_resp","","","img/orange_2bandit_a.png","70","img/orange_2bandit_a.png","70","test","","","","","","","","","3","","","","","","","","","","",""
"null","","433492","SARL_v6ne1kg4lj","msl000084","fixation","","","img/fixation.png","null","","","test","","","","","","","","","","","","","","","","","","","",""
"597","","434093","SARL_v6ne1kg4lj","msl000084","freq","","","img/orange_2bandit_a2.png","70","","70","test","1","","","square","circle","74","72","22","3","0.9583333333333334","","","","","","","","","",""
"null","","434300","SARL_v6ne1kg4lj","msl000084","freq_resp","","","img/orange_2bandit_a.png","70","img/orange_2bandit_a.png","70","test","","","","","","","","","3","","","","","","","","","","",""
"null","","434456","SARL_v6ne1kg4lj","msl000084","fixation","","","img/fixation.png","null","","","test","","","","","","","","","","","","","","","","","","","",""
"335","","434796","SARL_v6ne1kg4lj","msl000084","freq","","","img/orange_2bandit_a2.png","70","","70","test","1","","","square","circle","75","73","23","3","0.958904109589041","","","","","","","","","",""
"null","","435266","SARL_v6ne1kg4lj","msl000084","freq_resp","","","img/orange_2bandit_a.png","70","img/orange_2bandit_a.png","70","test","","","","","","","","","3","","","","","","","","","","",""
"null","","435421","SARL_v6ne1kg4lj","msl000084","fixation","","","img/fixation.png","null","","","test","","","","","","","","","","","","","","","","","","","",""
"378","","435805","SARL_v6ne1kg4lj","msl000084","freq","","","img/orange_2bandit_a2.png","70","","70","test","1","","","square","circle","76","74","24","3","0.9594594594594594","","","","","","","","","",""
"null","","436233","SARL_v6ne1kg4lj","msl000084","freq_resp","","","img/orange_2bandit_a.png","70","img/orange_2bandit_a.png","70","test","","","","","","","","","3","","","","","","","","","","",""
"null","","436388","SARL_v6ne1kg4lj","msl000084","fixation","","","img/fixation.png","null","","","test","","","","","","","","","","","","","","","","","","","",""
"322","","436716","SARL_v6ne1kg4lj","msl000084","freq","","","img/orange_2bandit_a2.png","70","","70","test","1","","","square","circle","77","75","25","3","0.96","","","","","","","","","",""
"null","","437200","SARL_v6ne1kg4lj","msl000084","freq_resp","","","img/orange_2bandit_a.png","70","img/orange_2bandit_a.png","70","test","","","","","","","","","3","","","","","","","","","","",""
"null","","437355","SARL_v6ne1kg4lj","msl000084","fixation","","","img/fixation.png","null","","","test","","","","","","","","","","","","","","","","","","","",""
"370","","437731","SARL_v6ne1kg4lj","msl000084","freq","","","img/orange_2bandit_a2.png","70","","70","test","1","","","square","circle","78","76","26","3","0.9605263157894737","","","","","","","","","",""
"null","","438166","SARL_v6ne1kg4lj","msl000084","freq_resp","","","img/orange_2bandit_a.png","70","img/orange_2bandit_a.png","70","test","","","","","","","","","3","","","","","","","","","","",""
"null","","438321","SARL_v6ne1kg4lj","msl000084","fixation","","","img/fixation.png","null","","","test","","","","","","","","","","","","","","","","","","","",""
"367","","438693","SARL_v6ne1kg4lj","msl000084","freq","","","img/orange_2bandit_a2.png","70","","70","test","1","","","square","circle","79","77","27","3","0.961038961038961","","","","","","","","","",""
"null","","439131","SARL_v6ne1kg4lj","msl000084","freq_resp","","","img/orange_2bandit_a.png","70","img/orange_2bandit_a.png","70","test","","","","","","","","","3","","","","","","","","","","",""
"null","","439286","SARL_v6ne1kg4lj","msl000084","fixation","","","img/fixation.png","null","","","test","","","","","","","","","","","","","","","","","","","",""
"779","","440070","SARL_v6ne1kg4lj","msl000084","rl","","","img/black_2bandit_a2.png","75","","0","test","","","1","square","circle","80","","0","3","","75","0.8","0.2","0.4898726133004139","0.2","0.8","0.8","circle","3","0"
"null","","440825","SARL_v6ne1kg4lj","msl000084","feedback","","","img/yay_R_a.png","null","","na","test","","","","","","","","","3","","75","0.8","0.2","","","","0.8","","3",""
"530","","441359","SARL_v6ne1kg4lj","msl000084","freq","","","img/orange_2bandit_a2.png","70","","70","test","1","","","square","circle","81","78","1","4","0.9615384615384616","","","","","","","","","",""
"null","","441635","SARL_v6ne1kg4lj","msl000084","freq_resp","","","img/orange_2bandit_a.png","70","img/orange_2bandit_a.png","70","test","","","","","","","","","4","","","","","","","","","","",""
"null","","441790","SARL_v6ne1kg4lj","msl000084","fixation","","","img/fixation.png","null","","","test","","","","","","","","","","","","","","","","","","","",""
"457","","442252","SARL_v6ne1kg4lj","msl000084","infreq","","","img/green_2bandit_a2.png","68","","68","test","1","","","square","circle","82","79","2","4","0.9620253164556962","","","","","","","","","",""
"null","","442601","SARL_v6ne1kg4lj","msl000084","infreq_resp","","","img/green_2bandit_a.png","68","img/green_2bandit_a.png","68","test","","","","","","","","","4","","","","","","","","","","",""
"null","","442755","SARL_v6ne1kg4lj","msl000084","fixation","","","img/fixation.png","null","","","test","","","","","","","","","","","","","","","","","","","",""
"393","","443153","SARL_v6ne1kg4lj","msl000084","freq","","","img/orange_2bandit_a2.png","70","","70","test","1","","","square","circle","83","80","3","4","0.9625","","","","","","","","","",""
"null","","443565","SARL_v6ne1kg4lj","msl000084","freq_resp","","","img/orange_2bandit_a.png","70","img/orange_2bandit_a.png","70","test","","","","","","","","","4","","","","","","","","","","",""
"null","","443721","SARL_v6ne1kg4lj","msl000084","fixation","","","img/fixation.png","null","","","test","","","","","","","","","","","","","","","","","","","",""
"419","","444143","SARL_v6ne1kg4lj","msl000084","freq","","","img/orange_2bandit_a2.png","70","","70","test","1","","","square","circle","84","81","4","4","0.9629629629629629","","","","","","","","","",""
"null","","444530","SARL_v6ne1kg4lj","msl000084","freq_resp","","","img/orange_2bandit_a.png","70","img/orange_2bandit_a.png","70","test","","","","","","","","","4","","","","","","","","","","",""
"null","","444685","SARL_v6ne1kg4lj","msl000084","fixation","","","img/fixation.png","null","","","test","","","","","","","","","","","","","","","","","","","",""
"347","","445037","SARL_v6ne1kg4lj","msl000084","freq","","","img/orange_2bandit_a2.png","70","","70","test","1","","","square","circle","85","82","5","4","0.9634146341463414","","","","","","","","","",""
"null","","445496","SARL_v6ne1kg4lj","msl000084","freq_resp","","","img/orange_2bandit_a.png","70","img/orange_2bandit_a.png","70","test","","","","","","","","","4","","","","","","","","","","",""
"null","","445651","SARL_v6ne1kg4lj","msl000084","fixation","","","img/fixation.png","null","","","test","","","","","","","","","","","","","","","","","","","",""
"354","","446011","SARL_v6ne1kg4lj","msl000084","freq","","","img/orange_2bandit_a2.png","70","","70","test","1","","","square","circle","86","83","6","4","0.963855421686747","","","","","","","","","",""
"null","","446463","SARL_v6ne1kg4lj","msl000084","freq_resp","","","img/orange_2bandit_a.png","70","img/orange_2bandit_a.png","70","test","","","","","","","","","4","","","","","","","","","","",""
"null","","446619","SARL_v6ne1kg4lj","msl000084","fixation","","","img/fixation.png","null","","","test","","","","","","","","","","","","","","","","","","","",""
"310","","446935","SARL_v6ne1kg4lj","msl000084","freq","","","img/orange_2bandit_a2.png","70","","70","test","1","","","square","circle","87","84","7","4","0.9642857142857143","","","","","","","","","",""
"null","","447430","SARL_v6ne1kg4lj","msl000084","freq_resp","","","img/orange_2bandit_a.png","70","img/orange_2bandit_a.png","70","test","","","","","","","","","4","","","","","","","","","","",""
"null","","447586","SARL_v6ne1kg4lj","msl000084","fixation","","","img/fixation.png","null","","","test","","","","","","","","","","","","","","","","","","","",""
"318","","447908","SARL_v6ne1kg4lj","msl000084","freq","","","img/orange_2bandit_a2.png","70","","70","test","1","","","square","circle","88","85","8","4","0.9647058823529412","","","","","","","","","",""
"null","","448396","SARL_v6ne1kg4lj","msl000084","freq_resp","","","img/orange_2bandit_a.png","70","img/orange_2bandit_a.png","70","test","","","","","","","","","4","","","","","","","","","","",""
"null","","448551","SARL_v6ne1kg4lj","msl000084","fixation","","","img/fixation.png","null","","","test","","","","","","","","","","","","","","","","","","","",""
"385","","448941","SARL_v6ne1kg4lj","msl000084","freq","","","img/orange_2bandit_a2.png","70","","70","test","1","","","square","circle","89","86","9","4","0.9651162790697675","","","","","","","","","",""
"null","","449362","SARL_v6ne1kg4lj","msl000084","freq_resp","","","img/orange_2bandit_a.png","70","img/orange_2bandit_a.png","70","test","","","","","","","","","4","","","","","","","","","","",""
"null","","449517","SARL_v6ne1kg4lj","msl000084","fixation","","","img/fixation.png","null","","","test","","","","","","","","","","","","","","","","","","","",""
"303","","449825","SARL_v6ne1kg4lj","msl000084","freq","","","img/orange_2bandit_a2.png","70","","70","test","1","","","square","circle","90","87","10","4","0.9655172413793104","","","","","","","","","",""
"null","","450327","SARL_v6ne1kg4lj","msl000084","freq_resp","","","img/orange_2bandit_a.png","70","img/orange_2bandit_a.png","70","test","","","","","","","","","4","","","","","","","","","","",""
"null","","450484","SARL_v6ne1kg4lj","msl000084","fixation","","","img/fixation.png","null","","","test","","","","","","","","","","","","","","","","","","","",""
"333","","450823","SARL_v6ne1kg4lj","msl000084","freq","","","img/orange_2bandit_a2.png","70","","70","test","1","","","square","circle","91","88","11","4","0.9659090909090909","","","","","","","","","",""
"null","","451296","SARL_v6ne1kg4lj","msl000084","freq_resp","","","img/orange_2bandit_a.png","70","img/orange_2bandit_a.png","70","test","","","","","","","","","4","","","","","","","","","","",""
"null","","451450","SARL_v6ne1kg4lj","msl000084","fixation","","","img/fixation.png","null","","","test","","","","","","","","","","","","","","","","","","","",""
"317","","451772","SARL_v6ne1kg4lj","msl000084","freq","","","img/orange_2bandit_a2.png","70","","70","test","1","","","square","circle","92","89","12","4","0.9662921348314607","","","","","","","","","",""
"null","","452261","SARL_v6ne1kg4lj","msl000084","freq_resp","","","img/orange_2bandit_a.png","70","img/orange_2bandit_a.png","70","test","","","","","","","","","4","","","","","","","","","","",""
"null","","452415","SARL_v6ne1kg4lj","msl000084","fixation","","","img/fixation.png","null","","","test","","","","","","","","","","","","","","","","","","","",""
"342","","452762","SARL_v6ne1kg4lj","msl000084","freq","","","img/orange_2bandit_a2.png","70","","70","test","1","","","square","circle","93","90","13","4","0.9666666666666667","","","","","","","","","",""
"null","","453224","SARL_v6ne1kg4lj","msl000084","freq_resp","","","img/orange_2bandit_a.png","70","img/orange_2bandit_a.png","70","test","","","","","","","","","4","","","","","","","","","","",""
"null","","453379","SARL_v6ne1kg4lj","msl000084","fixation","","","img/fixation.png","null","","","test","","","","","","","","","","","","","","","","","","","",""
"295","","453679","SARL_v6ne1kg4lj","msl000084","freq","","","img/orange_2bandit_a2.png","70","","70","test","1","","","square","circle","94","91","14","4","0.967032967032967","","","","","","","","","",""
"null","","454189","SARL_v6ne1kg4lj","msl000084","freq_resp","","","img/orange_2bandit_a.png","70","img/orange_2bandit_a.png","70","test","","","","","","","","","4","","","","","","","","","","",""
"null","","454345","SARL_v6ne1kg4lj","msl000084","fixation","","","img/fixation.png","null","","","test","","","","","","","","","","","","","","","","","","","",""
"422","","454773","SARL_v6ne1kg4lj","msl000084","freq","","","img/orange_2bandit_a2.png","70","","70","test","1","","","square","circle","95","92","15","4","0.967391304347826","","","","","","","","","",""
"null","","455157","SARL_v6ne1kg4lj","msl000084","freq_resp","","","img/orange_2bandit_a.png","70","img/orange_2bandit_a.png","70","test","","","","","","","","","4","","","","","","","","","","",""
"null","","455312","SARL_v6ne1kg4lj","msl000084","fixation","","","img/fixation.png","null","","","test","","","","","","","","","","","","","","","","","","","",""
"383","","455702","SARL_v6ne1kg4lj","msl000084","infreq","","","img/green_2bandit_a2.png","68","","68","test","1","","","square","circle","96","93","16","4","0.967741935483871","","","","","","","","","",""
"null","","456123","SARL_v6ne1kg4lj","msl000084","infreq_resp","","","img/green_2bandit_a.png","68","img/green_2bandit_a.png","68","test","","","","","","","","","4","","","","","","","","","","",""
"null","","456279","SARL_v6ne1kg4lj","msl000084","fixation","","","img/fixation.png","null","","","test","","","","","","","","","","","","","","","","","","","",""
"453","","456736","SARL_v6ne1kg4lj","msl000084","freq","","","img/orange_2bandit_a2.png","70","","70","test","1","","","square","circle","97","94","17","4","0.9680851063829787","","","","","","","","","",""
"null","","457088","SARL_v6ne1kg4lj","msl000084","freq_resp","","","img/orange_2bandit_a.png","70","img/orange_2bandit_a.png","70","test","","","","","","","","","4","","","","","","","","","","",""
"null","","457244","SARL_v6ne1kg4lj","msl000084","fixation","","","img/fixation.png","null","","","test","","","","","","","","","","","","","","","","","","","",""
"375","","457623","SARL_v6ne1kg4lj","msl000084","freq","","","img/orange_2bandit_a2.png","70","","70","test","1","","","square","circle","98","95","18","4","0.968421052631579","","","","","","","","","",""
"null","","458053","SARL_v6ne1kg4lj","msl000084","freq_resp","","","img/orange_2bandit_a.png","70","img/orange_2bandit_a.png","70","test","","","","","","","","","4","","","","","","","","","","",""
"null","","458209","SARL_v6ne1kg4lj","msl000084","fixation","","","img/fixation.png","null","","","test","","","","","","","","","","","","","","","","","","","",""
"324","","458537","SARL_v6ne1kg4lj","msl000084","freq","","","img/orange_2bandit_a2.png","70","","70","test","1","","","square","circle","99","96","19","4","0.96875","","","","","","","","","",""
"null","","459018","SARL_v6ne1kg4lj","msl000084","freq_resp","","","img/orange_2bandit_a.png","70","img/orange_2bandit_a.png","70","test","","","","","","","","","4","","","","","","","","","","",""
"null","","459174","SARL_v6ne1kg4lj","msl000084","fixation","","","img/fixation.png","null","","","test","","","","","","","","","","","","","","","","","","","",""
"302","","459481","SARL_v6ne1kg4lj","msl000084","freq","","","img/orange_2bandit_a2.png","70","","70","test","1","","","square","circle","100","97","20","4","0.9690721649484536","","","","","","","","","",""
"null","","459984","SARL_v6ne1kg4lj","msl000084","freq_resp","","","img/orange_2bandit_a.png","70","img/orange_2bandit_a.png","70","test","","","","","","","","","4","","","","","","","","","","",""
"null","","460139","SARL_v6ne1kg4lj","msl000084","fixation","","","img/fixation.png","null","","","test","","","","","","","","","","","","","","","","","","","",""
"264","","460408","SARL_v6ne1kg4lj","msl000084","freq","","","img/orange_2bandit_a2.png","70","","70","test","1","","","square","circle","101","98","21","4","0.9693877551020408","","","","","","","","","",""
"null","","460951","SARL_v6ne1kg4lj","msl000084","freq_resp","","","img/orange_2bandit_a.png","70","img/orange_2bandit_a.png","70","test","","","","","","","","","4","","","","","","","","","","",""
"null","","461107","SARL_v6ne1kg4lj","msl000084","fixation","","","img/fixation.png","null","","","test","","","","","","","","","","","","","","","","","","","",""
"282","","461393","SARL_v6ne1kg4lj","msl000084","freq","","","img/orange_2bandit_a2.png","70","","70","test","1","","","square","circle","102","99","22","4","0.9696969696969697","","","","","","","","","",""
"null","","461916","SARL_v6ne1kg4lj","msl000084","freq_resp","","","img/orange_2bandit_a.png","70","img/orange_2bandit_a.png","70","test","","","","","","","","","4","","","","","","","","","","",""
"null","","462071","SARL_v6ne1kg4lj","msl000084","fixation","","","img/fixation.png","null","","","test","","","","","","","","","","","","","","","","","","","",""
"305","","462381","SARL_v6ne1kg4lj","msl000084","freq","","","img/orange_2bandit_a2.png","70","","70","test","1","","","square","circle","103","100","23","4","0.97","","","","","","","","","",""
"null","","462882","SARL_v6ne1kg4lj","msl000084","freq_resp","","","img/orange_2bandit_a.png","70","img/orange_2bandit_a.png","70","test","","","","","","","","","4","","","","","","","","","","",""
"null","","463037","SARL_v6ne1kg4lj","msl000084","fixation","","","img/fixation.png","null","","","test","","","","","","","","","","","","","","","","","","","",""
"207","","463250","SARL_v6ne1kg4lj","msl000084","freq","","","img/orange_2bandit_a2.png","70","","70","test","1","","","square","circle","104","101","24","4","0.9702970297029703","","","","","","","","","",""
"null","","463849","SARL_v6ne1kg4lj","msl000084","freq_resp","","","img/orange_2bandit_a.png","70","img/orange_2bandit_a.png","70","test","","","","","","","","","4","","","","","","","","","","",""
"null","","464004","SARL_v6ne1kg4lj","msl000084","fixation","","","img/fixation.png","null","","","test","","","","","","","","","","","","","","","","","","","",""
"306","","464314","SARL_v6ne1kg4lj","msl000084","freq","","","img/orange_2bandit_a2.png","70","","70","test","1","","","square","circle","105","102","25","4","0.9705882352941176","","","","","","","","","",""
"null","","464813","SARL_v6ne1kg4lj","msl000084","freq_resp","","","img/orange_2bandit_a.png","70","img/orange_2bandit_a.png","70","test","","","","","","","","","4","","","","","","","","","","",""
"null","","464969","SARL_v6ne1kg4lj","msl000084","fixation","","","img/fixation.png","null","","","test","","","","","","","","","","","","","","","","","","","",""
"132","","465106","SARL_v6ne1kg4lj","msl000084","freq","","","img/orange_2bandit_a2.png","70","","70","test","1","","","square","circle","106","103","26","4","0.970873786407767","","","","","","","","","",""
"null","","465779","SARL_v6ne1kg4lj","msl000084","freq_resp","","","img/orange_2bandit_a.png","70","img/orange_2bandit_a.png","70","test","","","","","","","","","4","","","","","","","","","","",""
"null","","465935","SARL_v6ne1kg4lj","msl000084","fixation","","","img/fixation.png","null","","","test","","","","","","","","","","","","","","","","","","","",""
"105","","466045","SARL_v6ne1kg4lj","msl000084","freq","","","img/orange_2bandit_a2.png","70","","70","test","1","","","square","circle","107","104","27","4","0.9711538461538461","","","","","","","","","",""
"null","","466745","SARL_v6ne1kg4lj","msl000084","freq_resp","","","img/orange_2bandit_a.png","70","img/orange_2bandit_a.png","70","test","","","","","","","","","4","","","","","","","","","","",""
"null","","466902","SARL_v6ne1kg4lj","msl000084","fixation","","","img/fixation.png","null","","","test","","","","","","","","","","","","","","","","","","","",""
"699","","467605","SARL_v6ne1kg4lj","msl000084","rl","","","img/black_2bandit_a2.png","75","","0","test","","","1","square","circle","108","","0","4","","75","0.8","0.2","0.6474873699718142","0.2","0.8","0.8","circle","4","0"
"null","","468361","SARL_v6ne1kg4lj","msl000084","feedback","","","img/yay_R_a.png","null","","na","test","","","","","","","","","4","","75","0.8","0.2","","","","0.8","","4",""
"624","","468989","SARL_v6ne1kg4lj","msl000084","freq","","","img/orange_2bandit_a2.png","70","","70","test","1","","","square","circle","109","105","1","5","0.9714285714285714","","","","","","","","","",""
"null","","469172","SARL_v6ne1kg4lj","msl000084","freq_resp","","","img/orange_2bandit_a.png","70","img/orange_2bandit_a.png","70","test","","","","","","","","","5","","","","","","","","","","",""
"null","","469327","SARL_v6ne1kg4lj","msl000084","fixation","","","img/fixation.png","null","","","test","","","","","","","","","","","","","","","","","","","",""
"752","","470085","SARL_v6ne1kg4lj","msl000084","infreq","","","img/green_2bandit_a2.png","68","","68","test","1","","","square","circle","110","106","2","5","0.9716981132075472","","","","","","","","","",""
"null","","470138","SARL_v6ne1kg4lj","msl000084","infreq_resp","","","img/green_2bandit_a.png","68","img/green_2bandit_a.png","68","test","","","","","","","","","5","","","","","","","","","","",""
"null","","470292","SARL_v6ne1kg4lj","msl000084","fixation","","","img/fixation.png","null","","","test","","","","","","","","","","","","","","","","","","","",""
"520","","470817","SARL_v6ne1kg4lj","msl000084","freq","","","img/orange_2bandit_a2.png","70","","70","test","1","","","square","circle","111","107","3","5","0.9719626168224299","","","","","","","","","",""
"null","","471102","SARL_v6ne1kg4lj","msl000084","freq_resp","","","img/orange_2bandit_a.png","70","img/orange_2bandit_a.png","70","test","","","","","","","","","5","","","","","","","","","","",""
"null","","471258","SARL_v6ne1kg4lj","msl000084","fixation","","","img/fixation.png","null","","","test","","","","","","","","","","","","","","","","","","","",""
"479","","471742","SARL_v6ne1kg4lj","msl000084","freq","","","img/orange_2bandit_a2.png","70","","70","test","1","","","square","circle","112","108","4","5","0.9722222222222222","","","","","","","","","",""
"null","","472069","SARL_v6ne1kg4lj","msl000084","freq_resp","","","img/orange_2bandit_a.png","70","img/orange_2bandit_a.png","70","test","","","","","","","","","5","","","","","","","","","","",""
"null","","472225","SARL_v6ne1kg4lj","msl000084","fixation","","","img/fixation.png","null","","","test","","","","","","","","","","","","","","","","","","","",""
"335","","472564","SARL_v6ne1kg4lj","msl000084","freq","","","img/orange_2bandit_a2.png","70","","70","test","1","","","square","circle","113","109","5","5","0.9724770642201835","","","","","","","","","",""
"null","","473034","SARL_v6ne1kg4lj","msl000084","freq_resp","","","img/orange_2bandit_a.png","70","img/orange_2bandit_a.png","70","test","","","","","","","","","5","","","","","","","","","","",""
"null","","473191","SARL_v6ne1kg4lj","msl000084","fixation","","","img/fixation.png","null","","","test","","","","","","","","","","","","","","","","","","","",""
"328","","473523","SARL_v6ne1kg4lj","msl000084","freq","","","img/orange_2bandit_a2.png","70","","70","test","1","","","square","circle","114","110","6","5","0.9727272727272728","","","","","","","","","",""
"null","","473999","SARL_v6ne1kg4lj","msl000084","freq_resp","","","img/orange_2bandit_a.png","70","img/orange_2bandit_a.png","70","test","","","","","","","","","5","","","","","","","","","","",""
"null","","474155","SARL_v6ne1kg4lj","msl000084","fixation","","","img/fixation.png","null","","","test","","","","","","","","","","","","","","","","","","","",""
"317","","474478","SARL_v6ne1kg4lj","msl000084","freq","","","img/orange_2bandit_a2.png","70","","70","test","1","","","square","circle","115","111","7","5","0.972972972972973","","","","","","","","","",""
"null","","474965","SARL_v6ne1kg4lj","msl000084","freq_resp","","","img/orange_2bandit_a.png","70","img/orange_2bandit_a.png","70","test","","","","","","","","","5","","","","","","","","","","",""
"null","","475121","SARL_v6ne1kg4lj","msl000084","fixation","","","img/fixation.png","null","","","test","","","","","","","","","","","","","","","","","","","",""
"324","","475450","SARL_v6ne1kg4lj","msl000084","freq","","","img/orange_2bandit_a2.png","70","","70","test","1","","","square","circle","116","112","8","5","0.9732142857142857","","","","","","","","","",""
"null","","475933","SARL_v6ne1kg4lj","msl000084","freq_resp","","","img/orange_2bandit_a.png","70","img/orange_2bandit_a.png","70","test","","","","","","","","","5","","","","","","","","","","",""
"null","","476088","SARL_v6ne1kg4lj","msl000084","fixation","","","img/fixation.png","null","","","test","","","","","","","","","","","","","","","","","","","",""
"337","","476430","SARL_v6ne1kg4lj","msl000084","freq","","","img/orange_2bandit_a2.png","70","","70","test","1","","","square","circle","117","113","9","5","0.9734513274336283","","","","","","","","","",""
"null","","476898","SARL_v6ne1kg4lj","msl000084","freq_resp","","","img/orange_2bandit_a.png","70","img/orange_2bandit_a.png","70","test","","","","","","","","","5","","","","","","","","","","",""
"null","","477054","SARL_v6ne1kg4lj","msl000084","fixation","","","img/fixation.png","null","","","test","","","","","","","","","","","","","","","","","","","",""
"380","","477438","SARL_v6ne1kg4lj","msl000084","freq","","","img/orange_2bandit_a2.png","70","","70","test","1","","","square","circle","118","114","10","5","0.9736842105263158","","","","","","","","","",""
"null","","477864","SARL_v6ne1kg4lj","msl000084","freq_resp","","","img/orange_2bandit_a.png","70","img/orange_2bandit_a.png","70","test","","","","","","","","","5","","","","","","","","","","",""
"null","","478019","SARL_v6ne1kg4lj","msl000084","fixation","","","img/fixation.png","null","","","test","","","","","","","","","","","","","","","","","","","",""
"427","","478450","SARL_v6ne1kg4lj","msl000084","freq","","","img/orange_2bandit_a2.png","70","","70","test","1","","","square","circle","119","115","11","5","0.9739130434782609","","","","","","","","","",""
"null","","478829","SARL_v6ne1kg4lj","msl000084","freq_resp","","","img/orange_2bandit_a.png","70","img/orange_2bandit_a.png","70","test","","","","","","","","","5","","","","","","","","","","",""
"null","","478984","SARL_v6ne1kg4lj","msl000084","fixation","","","img/fixation.png","null","","","test","","","","","","","","","","","","","","","","","","","",""
"328","","479316","SARL_v6ne1kg4lj","msl000084","freq","","","img/orange_2bandit_a2.png","70","","70","test","1","","","square","circle","120","116","12","5","0.9741379310344828","","","","","","","","","",""
"null","","479793","SARL_v6ne1kg4lj","msl000084","freq_resp","","","img/orange_2bandit_a.png","70","img/orange_2bandit_a.png","70","test","","","","","","","","","5","","","","","","","","","","",""
"null","","479948","SARL_v6ne1kg4lj","msl000084","fixation","","","img/fixation.png","null","","","test","","","","","","","","","","","","","","","","","","","",""
"445","","480399","SARL_v6ne1kg4lj","msl000084","freq","","","img/orange_2bandit_a2.png","70","","70","test","1","","","square","circle","121","117","13","5","0.9743589743589743","","","","","","","","","",""
"null","","480759","SARL_v6ne1kg4lj","msl000084","freq_resp","","","img/orange_2bandit_a.png","70","img/orange_2bandit_a.png","70","test","","","","","","","","","5","","","","","","","","","","",""
"null","","480916","SARL_v6ne1kg4lj","msl000084","fixation","","","img/fixation.png","null","","","test","","","","","","","","","","","","","","","","","","","",""
"370","","481291","SARL_v6ne1kg4lj","msl000084","freq","","","img/orange_2bandit_a2.png","70","","70","test","1","","","square","circle","122","118","14","5","0.9745762711864406","","","","","","","","","",""
"null","","481726","SARL_v6ne1kg4lj","msl000084","freq_resp","","","img/orange_2bandit_a.png","70","img/orange_2bandit_a.png","70","test","","","","","","","","","5","","","","","","","","","","",""
"null","","481882","SARL_v6ne1kg4lj","msl000084","fixation","","","img/fixation.png","null","","","test","","","","","","","","","","","","","","","","","","","",""
"308","","482195","SARL_v6ne1kg4lj","msl000084","freq","","","img/orange_2bandit_a2.png","70","","70","test","1","","","square","circle","123","119","15","5","0.9747899159663865","","","","","","","","","",""
"null","","482694","SARL_v6ne1kg4lj","msl000084","freq_resp","","","img/orange_2bandit_a.png","70","img/orange_2bandit_a.png","70","test","","","","","","","","","5","","","","","","","","","","",""
"null","","482849","SARL_v6ne1kg4lj","msl000084","fixation","","","img/fixation.png","null","","","test","","","","","","","","","","","","","","","","","","","",""
"327","","483178","SARL_v6ne1kg4lj","msl000084","freq","","","img/orange_2bandit_a2.png","70","","70","test","1","","","square","circle","124","120","16","5","0.975","","","","","","","","","",""
"null","","483656","SARL_v6ne1kg4lj","msl000084","freq_resp","","","img/orange_2bandit_a.png","70","img/orange_2bandit_a.png","70","test","","","","","","","","","5","","","","","","","","","","",""
"null","","483812","SARL_v6ne1kg4lj","msl000084","fixation","","","img/fixation.png","null","","","test","","","","","","","","","","","","","","","","","","","",""
"336","","484153","SARL_v6ne1kg4lj","msl000084","infreq","","","img/green_2bandit_a2.png","68","","68","test","1","","","square","circle","125","121","17","5","0.9752066115702479","","","","","","","","","",""
"null","","484622","SARL_v6ne1kg4lj","msl000084","infreq_resp","","","img/green_2bandit_a.png","68","img/green_2bandit_a.png","68","test","","","","","","","","","5","","","","","","","","","","",""
"null","","484778","SARL_v6ne1kg4lj","msl000084","fixation","","","img/fixation.png","null","","","test","","","","","","","","","","","","","","","","","","","",""
"333","","485116","SARL_v6ne1kg4lj","msl000084","freq","","","img/orange_2bandit_a2.png","70","","70","test","1","","","square","circle","126","122","18","5","0.9754098360655737","","","","","","","","","",""
"null","","485588","SARL_v6ne1kg4lj","msl000084","freq_resp","","","img/orange_2bandit_a.png","70","img/orange_2bandit_a.png","70","test","","","","","","","","","5","","","","","","","","","","",""
"null","","485745","SARL_v6ne1kg4lj","msl000084","fixation","","","img/fixation.png","null","","","test","","","","","","","","","","","","","","","","","","","",""
"175","","485923","SARL_v6ne1kg4lj","msl000084","freq","","","img/orange_2bandit_a2.png","70","","70","test","1","","","square","circle","127","123","19","5","0.975609756097561","","","","","","","","","",""
"null","","486554","SARL_v6ne1kg4lj","msl000084","freq_resp","","","img/orange_2bandit_a.png","70","img/orange_2bandit_a.png","70","test","","","","","","","","","5","","","","","","","","","","",""
"null","","486709","SARL_v6ne1kg4lj","msl000084","fixation","","","img/fixation.png","null","","","test","","","","","","","","","","","","","","","","","","","",""
"556","","487271","SARL_v6ne1kg4lj","msl000084","rl","","","img/black_2bandit_a2.png","74","","0","test","","","0","square","circle","128","","0","5","","74","0.8","0.2","0.47091867782692076","0.2","0.8","0.2","square","5","0"
"null","","488027","SARL_v6ne1kg4lj","msl000084","feedback","","","img/boo_L_a.png","null","","na","test","","","","","","","","","5","","74","0.8","0.2","","","","0.2","","5",""
"372","","488403","SARL_v6ne1kg4lj","msl000084","freq","","","img/orange_2bandit_a2.png","70","","70","test","1","","","square","circle","129","124","1","6","0.9758064516129032","","","","","","","","","",""
"null","","488836","SARL_v6ne1kg4lj","msl000084","freq_resp","","","img/orange_2bandit_a.png","70","img/orange_2bandit_a.png","70","test","","","","","","","","","6","","","","","","","","","","",""
"null","","488991","SARL_v6ne1kg4lj","msl000084","fixation","","","img/fixation.png","null","","","test","","","","","","","","","","","","","","","","","","","",""
"294","","489291","SARL_v6ne1kg4lj","msl000084","freq","","","img/orange_2bandit_a2.png","70","","70","test","1","","","square","circle","130","125","2","6","0.976","","","","","","","","","",""
"null","","489803","SARL_v6ne1kg4lj","msl000084","freq_resp","","","img/orange_2bandit_a.png","70","img/orange_2bandit_a.png","70","test","","","","","","","","","6","","","","","","","","","","",""
"null","","489959","SARL_v6ne1kg4lj","msl000084","fixation","","","img/fixation.png","null","","","test","","","","","","","","","","","","","","","","","","","",""
"140","","490105","SARL_v6ne1kg4lj","msl000084","freq","","","img/orange_2bandit_a2.png","70","","70","test","1","","","square","circle","131","126","3","6","0.9761904761904762","","","","","","","","","",""
"null","","490770","SARL_v6ne1kg4lj","msl000084","freq_resp","","","img/orange_2bandit_a.png","70","img/orange_2bandit_a.png","70","test","","","","","","","","","6","","","","","","","","","","",""
"null","","490924","SARL_v6ne1kg4lj","msl000084","fixation","","","img/fixation.png","null","","","test","","","","","","","","","","","","","","","","","","","",""
"139","","491068","SARL_v6ne1kg4lj","msl000084","infreq","","","img/green_2bandit_a2.png","70","","68","test","0","","","square","circle","132","127","4","6","0.968503937007874","","","","","","","","","",""
"null","","491736","SARL_v6ne1kg4lj","msl000084","infreq_resp","","","img/green_2bandit_a.png","70","img/green_2bandit_a.png","68","test","","","","","","","","","6","","","","","","","","","","",""
"null","","491891","SARL_v6ne1kg4lj","msl000084","fixation","","","img/fixation.png","null","","","test","","","","","","","","","","","","","","","","","","","",""
"384","","492279","SARL_v6ne1kg4lj","msl000084","freq","","","img/orange_2bandit_a2.png","70","","70","test","1","","","square","circle","133","128","5","6","0.96875","","","","","","","","","",""
"null","","492700","SARL_v6ne1kg4lj","msl000084","freq_resp","","","img/orange_2bandit_a.png","70","img/orange_2bandit_a.png","70","test","","","","","","","","","6","","","","","","","","","","",""
"null","","492857","SARL_v6ne1kg4lj","msl000084","fixation","","","img/fixation.png","null","","","test","","","","","","","","","","","","","","","","","","","",""
"349","","493211","SARL_v6ne1kg4lj","msl000084","freq","","","img/orange_2bandit_a2.png","70","","70","test","1","","","square","circle","134","129","6","6","0.9689922480620154","","","","","","","","","",""
"null","","493668","SARL_v6ne1kg4lj","msl000084","freq_resp","","","img/orange_2bandit_a.png","70","img/orange_2bandit_a.png","70","test","","","","","","","","","6","","","","","","","","","","",""
"null","","493823","SARL_v6ne1kg4lj","msl000084","fixation","","","img/fixation.png","null","","","test","","","","","","","","","","","","","","","","","","","",""
"333","","494161","SARL_v6ne1kg4lj","msl000084","freq","","","img/orange_2bandit_a2.png","70","","70","test","1","","","square","circle","135","130","7","6","0.9692307692307692","","","","","","","","","",""
"null","","494634","SARL_v6ne1kg4lj","msl000084","freq_resp","","","img/orange_2bandit_a.png","70","img/orange_2bandit_a.png","70","test","","","","","","","","","6","","","","","","","","","","",""
"null","","494788","SARL_v6ne1kg4lj","msl000084","fixation","","","img/fixation.png","null","","","test","","","","","","","","","","","","","","","","","","","",""
"331","","495125","SARL_v6ne1kg4lj","msl000084","freq","","","img/orange_2bandit_a2.png","70","","70","test","1","","","square","circle","136","131","8","6","0.9694656488549618","","","","","","","","","",""
"null","","495599","SARL_v6ne1kg4lj","msl000084","freq_resp","","","img/orange_2bandit_a.png","70","img/orange_2bandit_a.png","70","test","","","","","","","","","6","","","","","","","","","","",""
"null","","495755","SARL_v6ne1kg4lj","msl000084","fixation","","","img/fixation.png","null","","","test","","","","","","","","","","","","","","","","","","","",""
"364","","496125","SARL_v6ne1kg4lj","msl000084","freq","","","img/orange_2bandit_a2.png","70","","70","test","1","","","square","circle","137","132","9","6","0.9696969696969697","","","","","","","","","",""
"null","","496566","SARL_v6ne1kg4lj","msl000084","freq_resp","","","img/orange_2bandit_a.png","70","img/orange_2bandit_a.png","70","test","","","","","","","","","6","","","","","","","","","","",""
"null","","496722","SARL_v6ne1kg4lj","msl000084","fixation","","","img/fixation.png","null","","","test","","","","","","","","","","","","","","","","","","","",""
"440","","497167","SARL_v6ne1kg4lj","msl000084","infreq","","","img/green_2bandit_a2.png","68","","68","test","1","","","square","circle","138","133","10","6","0.9699248120300752","","","","","","","","","",""
"null","","497533","SARL_v6ne1kg4lj","msl000084","infreq_resp","","","img/green_2bandit_a.png","68","img/green_2bandit_a.png","68","test","","","","","","","","","6","","","","","","","","","","",""
"null","","497688","SARL_v6ne1kg4lj","msl000084","fixation","","","img/fixation.png","null","","","test","","","","","","","","","","","","","","","","","","","",""
"210","","497904","SARL_v6ne1kg4lj","msl000084","freq","","","img/orange_2bandit_a2.png","70","","70","test","1","","","square","circle","139","134","11","6","0.9701492537313433","","","","","","","","","",""
"null","","498500","SARL_v6ne1kg4lj","msl000084","freq_resp","","","img/orange_2bandit_a.png","70","img/orange_2bandit_a.png","70","test","","","","","","","","","6","","","","","","","","","","",""
"null","","498654","SARL_v6ne1kg4lj","msl000084","fixation","","","img/fixation.png","null","","","test","","","","","","","","","","","","","","","","","","","",""
"313","","498973","SARL_v6ne1kg4lj","msl000084","freq","","","img/orange_2bandit_a2.png","70","","70","test","1","","","square","circle","140","135","12","6","0.9703703703703703","","","","","","","","","",""
"null","","499466","SARL_v6ne1kg4lj","msl000084","freq_resp","","","img/orange_2bandit_a.png","70","img/orange_2bandit_a.png","70","test","","","","","","","","","6","","","","","","","","","","",""
"null","","499621","SARL_v6ne1kg4lj","msl000084","fixation","","","img/fixation.png","null","","","test","","","","","","","","","","","","","","","","","","","",""
"395","","500022","SARL_v6ne1kg4lj","msl000084","freq","","","img/orange_2bandit_a2.png","70","","70","test","1","","","square","circle","141","136","13","6","0.9705882352941176","","","","","","","","","",""
"null","","500432","SARL_v6ne1kg4lj","msl000084","freq_resp","","","img/orange_2bandit_a.png","70","img/orange_2bandit_a.png","70","test","","","","","","","","","6","","","","","","","","","","",""
"null","","500586","SARL_v6ne1kg4lj","msl000084","fixation","","","img/fixation.png","null","","","test","","","","","","","","","","","","","","","","","","","",""
"451","","501042","SARL_v6ne1kg4lj","msl000084","freq","","","img/orange_2bandit_a2.png","70","","70","test","1","","","square","circle","142","137","14","6","0.9708029197080292","","","","","","","","","",""
"null","","501397","SARL_v6ne1kg4lj","msl000084","freq_resp","","","img/orange_2bandit_a.png","70","img/orange_2bandit_a.png","70","test","","","","","","","","","6","","","","","","","","","","",""
"null","","501551","SARL_v6ne1kg4lj","msl000084","fixation","","","img/fixation.png","null","","","test","","","","","","","","","","","","","","","","","","","",""
"350","","501905","SARL_v6ne1kg4lj","msl000084","freq","","","img/orange_2bandit_a2.png","70","","70","test","1","","","square","circle","143","138","15","6","0.9710144927536232","","","","","","","","","",""
"null","","502362","SARL_v6ne1kg4lj","msl000084","freq_resp","","","img/orange_2bandit_a.png","70","img/orange_2bandit_a.png","70","test","","","","","","","","","6","","","","","","","","","","",""
"null","","502516","SARL_v6ne1kg4lj","msl000084","fixation","","","img/fixation.png","null","","","test","","","","","","","","","","","","","","","","","","","",""
"478","","503000","SARL_v6ne1kg4lj","msl000084","freq","","","img/orange_2bandit_a2.png","70","","70","test","1","","","square","circle","144","139","16","6","0.9712230215827338","","","","","","","","","",""
"null","","503327","SARL_v6ne1kg4lj","msl000084","freq_resp","","","img/orange_2bandit_a.png","70","img/orange_2bandit_a.png","70","test","","","","","","","","","6","","","","","","","","","","",""
"null","","503483","SARL_v6ne1kg4lj","msl000084","fixation","","","img/fixation.png","null","","","test","","","","","","","","","","","","","","","","","","","",""
"603","","504092","SARL_v6ne1kg4lj","msl000084","freq","","","img/orange_2bandit_a2.png","70","","70","test","1","","","square","circle","145","140","17","6","0.9714285714285714","","","","","","","","","",""
"null","","504294","SARL_v6ne1kg4lj","msl000084","freq_resp","","","img/orange_2bandit_a.png","70","img/orange_2bandit_a.png","70","test","","","","","","","","","6","","","","","","","","","","",""
"null","","504450","SARL_v6ne1kg4lj","msl000084","fixation","","","img/fixation.png","null","","","test","","","","","","","","","","","","","","","","","","","",""
"372","","504825","SARL_v6ne1kg4lj","msl000084","freq","","","img/orange_2bandit_a2.png","70","","70","test","1","","","square","circle","146","141","18","6","0.9716312056737588","","","","","","","","","",""
"null","","505259","SARL_v6ne1kg4lj","msl000084","freq_resp","","","img/orange_2bandit_a.png","70","img/orange_2bandit_a.png","70","test","","","","","","","","","6","","","","","","","","","","",""
"null","","505415","SARL_v6ne1kg4lj","msl000084","fixation","","","img/fixation.png","null","","","test","","","","","","","","","","","","","","","","","","","",""
"345","","505764","SARL_v6ne1kg4lj","msl000084","freq","","","img/orange_2bandit_a2.png","70","","70","test","1","","","square","circle","147","142","19","6","0.971830985915493","","","","","","","","","",""
"null","","506225","SARL_v6ne1kg4lj","msl000084","freq_resp","","","img/orange_2bandit_a.png","70","img/orange_2bandit_a.png","70","test","","","","","","","","","6","","","","","","","","","","",""
"null","","506380","SARL_v6ne1kg4lj","msl000084","fixation","","","img/fixation.png","null","","","test","","","","","","","","","","","","","","","","","","","",""
"333","","506717","SARL_v6ne1kg4lj","msl000084","freq","","","img/orange_2bandit_a2.png","70","","70","test","1","","","square","circle","148","143","20","6","0.972027972027972","","","","","","","","","",""
