"rt","responses","time_elapsed","subject","demoID","trialType","rlType","attType","stimulus","key_press","stim","corrresp","phase","corr","pracCounter","reward","bandOne","bandTwo","trialNum","attentionNum","attentionRunNum","blockNum","performance","bandChosen","circleVal","squareVal","coin","bandOneVal","bandTwoVal","pReward","shapeChosen","rlNum","badFlag"
"10672","{""Q0"":""msl000057""}","10693","SARL_v6k3hhcfwz","msl000057","","","","","","","","","","","","","","","","","","","","","","","","","","","",""
"1385","","12083","SARL_v6k3hhcfwz","msl000057","","","","","","","","","","","","","","","","","","","","","","","","","","","",""
"","","13999","SARL_v6k3hhcfwz","msl000057","fullscreen","fullscreen","fullscreen","","","","","","","","","","","","","","","","","","","","","","","","",""
"121138","","135144","SARL_v6k3hhcfwz","msl000057","","","","","","","","","","","","","","","","","","","","","","","","","","","",""
"null","","135951","SARL_v6k3hhcfwz","msl000057","freqPrac","","","img/green_2bandit_a2.png","null","img/green_2bandit_a2.png","70","prac","0","1","","","","","","","","","","","","","","","","","",""
"null","","136958","SARL_v6k3hhcfwz","msl000057","feedback","","","img/tooSlow.png","null","","na","prac","","","","","","","","","","","","","","","","","","","",""
"null","","137114","SARL_v6k3hhcfwz","msl000057","fixation","","","img/fixation.png","null","","","prac","","","","","","","","","","","","","","","","","","","",""
"457","","137576","SARL_v6k3hhcfwz","msl000057","infreqPrac","","","img/orange_2bandit_a2.png","68","img/orange_2bandit_a2.png","68","prac","1","1","","","","","","","","","","","","","","","","","",""
"457","","137925","SARL_v6k3hhcfwz","msl000057","infreqPrac_resp","","","img/orange_2bandit_a.png","68","img/orange_2bandit_a.png","68","prac","","","","","","","","","","","","","","","","","","","",""
"null","","138080","SARL_v6k3hhcfwz","msl000057","fixation","","","img/fixation.png","null","","","prac","","","","","","","","","","","","","","","","","","","",""
"13","","138097","SARL_v6k3hhcfwz","msl000057","freqPrac","","","img/green_2bandit_a2.png","68","img/green_2bandit_a2.png","70","prac","0","2","","","","","","","","","","","","","","","","","",""
"13","","138890","SARL_v6k3hhcfwz","msl000057","freqPrac_resp","","","img/green_2bandit_a.png","68","img/green_2bandit_a.png","70","prac","","","","","","","","","","","","","","","","","","","",""
"null","","139896","SARL_v6k3hhcfwz","msl000057","feedback","","","img/wrongKey.png","null","","na","prac","","","","","","","","","","","","","","","","","","","",""
"null","","140052","SARL_v6k3hhcfwz","msl000057","fixation","","","img/fixation.png","null","","","prac","","","","","","","","","","","","","","","","","","","",""
"455","","140512","SARL_v6k3hhcfwz","msl000057","infreqPrac","","","img/orange_2bandit_a2.png","68","img/orange_2bandit_a2.png","68","prac","1","2","","","","","","","","","","","","","","","","","",""
"455","","140863","SARL_v6k3hhcfwz","msl000057","infreqPrac_resp","","","img/orange_2bandit_a.png","68","img/orange_2bandit_a.png","68","prac","","","","","","","","","","","","","","","","","","","",""
"null","","141019","SARL_v6k3hhcfwz","msl000057","fixation","","","img/fixation.png","null","","","prac","","","","","","","","","","","","","","","","","","","",""
"460","","141485","SARL_v6k3hhcfwz","msl000057","infreqPrac","","","img/orange_2bandit_a2.png","68","img/orange_2bandit_a2.png","68","prac","1","2","","","","","","","","","","","","","","","","","",""
"460","","141830","SARL_v6k3hhcfwz","msl000057","infreqPrac_resp","","","img/orange_2bandit_a.png","68","img/orange_2bandit_a.png","68","prac","","","","","","","","","","","","","","","","","","","",""
"null","","141984","SARL_v6k3hhcfwz","msl000057","fixation","","","img/fixation.png","null","","","prac","","","","","","","","","","","","","","","","","","","",""
"353","","142344","SARL_v6k3hhcfwz","msl000057","infreqPrac","","","img/orange_2bandit_a2.png","68","img/orange_2bandit_a2.png","68","prac","1","2","","","","","","","","","","","","","","","","","",""
"353","","142796","SARL_v6k3hhcfwz","msl000057","infreqPrac_resp","","","img/orange_2bandit_a.png","68","img/orange_2bandit_a.png","68","prac","","","","","","","","","","","","","","","","","","","",""
"null","","142952","SARL_v6k3hhcfwz","msl000057","fixation","","","img/fixation.png","null","","","prac","","","","","","","","","","","","","","","","","","","",""
"356","","143312","SARL_v6k3hhcfwz","msl000057","freqPrac","","","img/green_2bandit_a2.png","70","img/green_2bandit_a2.png","70","prac","1","2","","","","","","","","","","","","","","","","","",""
"356","","143763","SARL_v6k3hhcfwz","msl000057","freqPrac_resp","","","img/green_2bandit_a.png","70","img/green_2bandit_a.png","70","prac","","","","","","","","","","","","","","","","","","","",""
"null","","143919","SARL_v6k3hhcfwz","msl000057","fixation","","","img/fixation.png","null","","","prac","","","","","","","","","","","","","","","","","","","",""
"410","","144334","SARL_v6k3hhcfwz","msl000057","infreqPrac","","","img/orange_2bandit_a2.png","68","img/orange_2bandit_a2.png","68","prac","1","2","","","","","","","","","","","","","","","","","",""
"410","","144730","SARL_v6k3hhcfwz","msl000057","infreqPrac_resp","","","img/orange_2bandit_a.png","68","img/orange_2bandit_a.png","68","prac","","","","","","","","","","","","","","","","","","","",""
"null","","144886","SARL_v6k3hhcfwz","msl000057","fixation","","","img/fixation.png","null","","","prac","","","","","","","","","","","","","","","","","","","",""
"326","","145216","SARL_v6k3hhcfwz","msl000057","freqPrac","","","img/green_2bandit_a2.png","70","img/green_2bandit_a2.png","70","prac","1","2","","","","","","","","","","","","","","","","","",""
"326","","145696","SARL_v6k3hhcfwz","msl000057","freqPrac_resp","","","img/green_2bandit_a.png","70","img/green_2bandit_a.png","70","prac","","","","","","","","","","","","","","","","","","","",""
"null","","145852","SARL_v6k3hhcfwz","msl000057","fixation","","","img/fixation.png","null","","","prac","","","","","","","","","","","","","","","","","","","",""
"341","","146198","SARL_v6k3hhcfwz","msl000057","freqPrac","","","img/green_2bandit_a2.png","70","img/green_2bandit_a2.png","70","prac","1","2","","","","","","","","","","","","","","","","","",""
"341","","146663","SARL_v6k3hhcfwz","msl000057","freqPrac_resp","","","img/green_2bandit_a.png","70","img/green_2bandit_a.png","70","prac","","","","","","","","","","","","","","","","","","","",""
"null","","146817","SARL_v6k3hhcfwz","msl000057","fixation","","","img/fixation.png","null","","","prac","","","","","","","","","","","","","","","","","","","",""
"81850","","228671","SARL_v6k3hhcfwz","msl000057","","","","","","","","prac","","","","","","","","","","","","","","","","","","","",""
"648","","229323","SARL_v6k3hhcfwz","msl000057","rlPractice","","","img/black_2bandit_a2.png","74","img/black_2bandit_a2.png","","prac","","","75","","","","","","","","","","","","","","","","",""
"null","","230080","SARL_v6k3hhcfwz","msl000057","feedback","","","img/boo_L_a.png","null","","na","prac","","","","","","","","","","","","","","","","","","","",""
"null","","230235","SARL_v6k3hhcfwz","msl000057","fixation","","","img/fixation.png","null","","","prac","","","","","","","","","","","","","","","","","","","",""
"222","","230461","SARL_v6k3hhcfwz","msl000057","rlPractice","","","img/black_2bandit_a2.png","75","img/black_2bandit_a2.png","","prac","","","75","","","","","","","","","","","","","","","","",""
"null","","231217","SARL_v6k3hhcfwz","msl000057","feedback","","","img/yay_R_a.png","null","","na","prac","","","","","","","","","","","","","","","","","","","",""
"null","","231373","SARL_v6k3hhcfwz","msl000057","fixation","","","img/fixation.png","null","","","prac","","","","","","","","","","","","","","","","","","","",""
"278","","231656","SARL_v6k3hhcfwz","msl000057","rlPractice","","","img/black_2bandit_a2.png","75","img/black_2bandit_a2.png","","prac","","","75","","","","","","","","","","","","","","","","",""
"null","","232413","SARL_v6k3hhcfwz","msl000057","feedback","","","img/yay_R_a.png","null","","na","prac","","","","","","","","","","","","","","","","","","","",""
"null","","232569","SARL_v6k3hhcfwz","msl000057","fixation","","","img/fixation.png","null","","","prac","","","","","","","","","","","","","","","","","","","",""
"517","","233091","SARL_v6k3hhcfwz","msl000057","rlPractice","","","img/black_2bandit_a2.png","75","img/black_2bandit_a2.png","","prac","","","75","","","","","","","","","","","","","","","","",""
"null","","233847","SARL_v6k3hhcfwz","msl000057","feedback","","","img/yay_R_a.png","null","","na","prac","","","","","","","","","","","","","","","","","","","",""
"null","","234002","SARL_v6k3hhcfwz","msl000057","fixation","","","img/fixation.png","null","","","prac","","","","","","","","","","","","","","","","","","","",""
"471","","234478","SARL_v6k3hhcfwz","msl000057","rlPractice","","","img/black_2bandit_a2.png","75","img/black_2bandit_a2.png","","prac","","","75","","","","","","","","","","","","","","","","",""
"null","","235233","SARL_v6k3hhcfwz","msl000057","feedback","","","img/yay_R_a.png","null","","na","prac","","","","","","","","","","","","","","","","","","","",""
"null","","235389","SARL_v6k3hhcfwz","msl000057","fixation","","","img/fixation.png","null","","","prac","","","","","","","","","","","","","","","","","","","",""
"383","","235777","SARL_v6k3hhcfwz","msl000057","rlPractice","","","img/black_2bandit_a2.png","75","img/black_2bandit_a2.png","","prac","","","75","","","","","","","","","","","","","","","","",""
"null","","236533","SARL_v6k3hhcfwz","msl000057","feedback","","","img/yay_R_a.png","null","","na","prac","","","","","","","","","","","","","","","","","","","",""
"null","","236689","SARL_v6k3hhcfwz","msl000057","fixation","","","img/fixation.png","null","","","prac","","","","","","","","","","","","","","","","","","","",""
"413","","237108","SARL_v6k3hhcfwz","msl000057","rlPractice","","","img/black_2bandit_a2.png","75","img/black_2bandit_a2.png","","prac","","","75","","","","","","","","","","","","","","","","",""
"null","","237863","SARL_v6k3hhcfwz","msl000057","feedback","","","img/yay_R_a.png","null","","na","prac","","","","","","","","","","","","","","","","","","","",""
"null","","238019","SARL_v6k3hhcfwz","msl000057","fixation","","","img/fixation.png","null","","","prac","","","","","","","","","","","","","","","","","","","",""
"28677","","266699","SARL_v6k3hhcfwz","msl000057","","","","","","","","prac","","","","","","","","","","","","","","","","","","","",""
"null","","267504","SARL_v6k3hhcfwz","msl000057","mixAttFreqPrac","","","img/green_2bandit_a2.png","null","img/green_2bandit_a2.png","70","prac","","","","","","","","","","","","","","","","","","","",""
"63","","267659","SARL_v6k3hhcfwz","msl000057","fixation","","","img/fixation.png","70","","","prac","","","","","","","","","","","","","","","","","","","",""
"526","","268189","SARL_v6k3hhcfwz","msl000057","mixAttInfreqPrac","","","img/orange_2bandit_a2.png","68","img/orange_2bandit_a2.png","68","prac","","","","","","","","","","","","","","","","","","","",""
"526","","268470","SARL_v6k3hhcfwz","msl000057","infreqPrac_resp","","","img/orange_2bandit_a.png","68","img/green_2bandit_a.png","68","prac","","","","","","","","","","","","","","","","","","","",""
"null","","268626","SARL_v6k3hhcfwz","msl000057","fixation","","","img/fixation.png","null","","","prac","","","","","","","","","","","","","","","","","","","",""
"400","","269032","SARL_v6k3hhcfwz","msl000057","mixAttInfreqPrac","","","img/orange_2bandit_a2.png","68","img/orange_2bandit_a2.png","68","prac","","","","","","","","","","","","","","","","","","","",""
"400","","269438","SARL_v6k3hhcfwz","msl000057","infreqPrac_resp","","","img/orange_2bandit_a.png","68","img/green_2bandit_a.png","68","prac","","","","","","","","","","","","","","","","","","","",""
"null","","269594","SARL_v6k3hhcfwz","msl000057","fixation","","","img/fixation.png","null","","","prac","","","","","","","","","","","","","","","","","","","",""
"381","","269981","SARL_v6k3hhcfwz","msl000057","mixAttInfreqPrac","","","img/orange_2bandit_a2.png","68","img/orange_2bandit_a2.png","68","prac","","","","","","","","","","","","","","","","","","","",""
"381","","270406","SARL_v6k3hhcfwz","msl000057","infreqPrac_resp","","","img/orange_2bandit_a.png","68","img/green_2bandit_a.png","68","prac","","","","","","","","","","","","","","","","","","","",""
"null","","270562","SARL_v6k3hhcfwz","msl000057","fixation","","","img/fixation.png","null","","","prac","","","","","","","","","","","","","","","","","","","",""
"529","","271095","SARL_v6k3hhcfwz","msl000057","mixAttFreqPrac","","","img/green_2bandit_a2.png","70","img/green_2bandit_a2.png","70","prac","","","","","","","","","","","","","","","","","","","",""
"529","","271372","SARL_v6k3hhcfwz","msl000057","freqPrac_resp","","","img/green_2bandit_a.png","70","img/green_2bandit_a.png","70","prac","","","","","","","","","","","","","","","","","","","",""
"null","","271527","SARL_v6k3hhcfwz","msl000057","fixation","","","img/fixation.png","null","","","prac","","","","","","","","","","","","","","","","","","","",""
"787","","272319","SARL_v6k3hhcfwz","msl000057","mixRLPractice","","","img/black_2bandit_a2.png","74","img/black_2bandit_a2.png","","prac","","","","","","","","","","","","","","","","","","","",""
"null","","273074","SARL_v6k3hhcfwz","msl000057","feedback","","","img/boo_L_a.png","null","","na","prac","","","","","","","","","","","","","","","","","","","",""
"null","","273879","SARL_v6k3hhcfwz","msl000057","mixAttFreqPrac","","","img/green_2bandit_a2.png","null","img/green_2bandit_a2.png","70","prac","","","","","","","","","","","","","","","","","","","",""
"103","","274035","SARL_v6k3hhcfwz","msl000057","fixation","","","img/fixation.png","70","","","prac","","","","","","","","","","","","","","","","","","","",""
"558","","274599","SARL_v6k3hhcfwz","msl000057","mixAttInfreqPrac","","","img/orange_2bandit_a2.png","68","img/orange_2bandit_a2.png","68","prac","","","","","","","","","","","","","","","","","","","",""
"558","","274846","SARL_v6k3hhcfwz","msl000057","infreqPrac_resp","","","img/orange_2bandit_a.png","68","img/green_2bandit_a.png","68","prac","","","","","","","","","","","","","","","","","","","",""
"null","","275003","SARL_v6k3hhcfwz","msl000057","fixation","","","img/fixation.png","null","","","prac","","","","","","","","","","","","","","","","","","","",""
"473","","275481","SARL_v6k3hhcfwz","msl000057","mixAttFreqPrac","","","img/green_2bandit_a2.png","70","img/green_2bandit_a2.png","70","prac","","","","","","","","","","","","","","","","","","","",""
"473","","275813","SARL_v6k3hhcfwz","msl000057","freqPrac_resp","","","img/green_2bandit_a.png","70","img/green_2bandit_a.png","70","prac","","","","","","","","","","","","","","","","","","","",""
"null","","275968","SARL_v6k3hhcfwz","msl000057","fixation","","","img/fixation.png","null","","","prac","","","","","","","","","","","","","","","","","","","",""
"418","","276391","SARL_v6k3hhcfwz","msl000057","mixAttFreqPrac","","","img/green_2bandit_a2.png","70","img/green_2bandit_a2.png","70","prac","","","","","","","","","","","","","","","","","","","",""
"418","","276778","SARL_v6k3hhcfwz","msl000057","freqPrac_resp","","","img/green_2bandit_a.png","70","img/green_2bandit_a.png","70","prac","","","","","","","","","","","","","","","","","","","",""
"null","","276933","SARL_v6k3hhcfwz","msl000057","fixation","","","img/fixation.png","null","","","prac","","","","","","","","","","","","","","","","","","","",""
"393","","277332","SARL_v6k3hhcfwz","msl000057","mixAttInfreqPrac","","","img/orange_2bandit_a2.png","68","img/orange_2bandit_a2.png","68","prac","","","","","","","","","","","","","","","","","","","",""
"393","","277745","SARL_v6k3hhcfwz","msl000057","infreqPrac_resp","","","img/orange_2bandit_a.png","68","img/green_2bandit_a.png","68","prac","","","","","","","","","","","","","","","","","","","",""
"null","","277901","SARL_v6k3hhcfwz","msl000057","fixation","","","img/fixation.png","null","","","prac","","","","","","","","","","","","","","","","","","","",""
"647","","278553","SARL_v6k3hhcfwz","msl000057","mixRLPractice","","","img/black_2bandit_a2.png","74","img/black_2bandit_a2.png","","prac","","","","","","","","","","","","","","","","","","","",""
"null","","279308","SARL_v6k3hhcfwz","msl000057","feedback","","","img/boo_L_a.png","null","","na","prac","","","","","","","","","","","","","","","","","","","",""
"62534","","341847","SARL_v6k3hhcfwz","msl000057","","","","","","","","prac","","","","","","","","","","","","","","","","","","","",""
"601","","342454","SARL_v6k3hhcfwz","msl000057","freq","","","img/green_2bandit_a2.png","70","","70","test","1","","","square","circle","1","1","1","1","1","","","","","","","","","",""
"null","","342659","SARL_v6k3hhcfwz","msl000057","freq_resp","","","img/green_2bandit_a.png","70","img/green_2bandit_a.png","70","test","","","","","","","","","1","","","","","","","","","","",""
"null","","342816","SARL_v6k3hhcfwz","msl000057","fixation","","","img/fixation.png","null","","","test","","","","","","","","","","","","","","","","","","","",""
"377","","343198","SARL_v6k3hhcfwz","msl000057","freq","","","img/green_2bandit_a2.png","70","","70","test","1","","","square","circle","2","2","2","1","1","","","","","","","","","",""
"null","","343628","SARL_v6k3hhcfwz","msl000057","freq_resp","","","img/green_2bandit_a.png","70","img/green_2bandit_a.png","70","test","","","","","","","","","1","","","","","","","","","","",""
"null","","343784","SARL_v6k3hhcfwz","msl000057","fixation","","","img/fixation.png","null","","","test","","","","","","","","","","","","","","","","","","","",""
"373","","344162","SARL_v6k3hhcfwz","msl000057","freq","","","img/green_2bandit_a2.png","70","","70","test","1","","","square","circle","3","3","3","1","1","","","","","","","","","",""
"null","","344594","SARL_v6k3hhcfwz","msl000057","freq_resp","","","img/green_2bandit_a.png","70","img/green_2bandit_a.png","70","test","","","","","","","","","1","","","","","","","","","","",""
"null","","344750","SARL_v6k3hhcfwz","msl000057","fixation","","","img/fixation.png","null","","","test","","","","","","","","","","","","","","","","","","","",""
"408","","345163","SARL_v6k3hhcfwz","msl000057","freq","","","img/green_2bandit_a2.png","70","","70","test","1","","","square","circle","4","4","4","1","1","","","","","","","","","",""
"null","","345560","SARL_v6k3hhcfwz","msl000057","freq_resp","","","img/green_2bandit_a.png","70","img/green_2bandit_a.png","70","test","","","","","","","","","1","","","","","","","","","","",""
"null","","345716","SARL_v6k3hhcfwz","msl000057","fixation","","","img/fixation.png","null","","","test","","","","","","","","","","","","","","","","","","","",""
"336","","346058","SARL_v6k3hhcfwz","msl000057","freq","","","img/green_2bandit_a2.png","70","","70","test","1","","","square","circle","5","5","5","1","1","","","","","","","","","",""
"null","","346527","SARL_v6k3hhcfwz","msl000057","freq_resp","","","img/green_2bandit_a.png","70","img/green_2bandit_a.png","70","test","","","","","","","","","1","","","","","","","","","","",""
"null","","346683","SARL_v6k3hhcfwz","msl000057","fixation","","","img/fixation.png","null","","","test","","","","","","","","","","","","","","","","","","","",""
"312","","347000","SARL_v6k3hhcfwz","msl000057","freq","","","img/green_2bandit_a2.png","70","","70","test","1","","","square","circle","6","6","6","1","1","","","","","","","","","",""
"null","","347493","SARL_v6k3hhcfwz","msl000057","freq_resp","","","img/green_2bandit_a.png","70","img/green_2bandit_a.png","70","test","","","","","","","","","1","","","","","","","","","","",""
"null","","347648","SARL_v6k3hhcfwz","msl000057","fixation","","","img/fixation.png","null","","","test","","","","","","","","","","","","","","","","","","","",""
"311","","347964","SARL_v6k3hhcfwz","msl000057","freq","","","img/green_2bandit_a2.png","70","","70","test","1","","","square","circle","7","7","7","1","1","","","","","","","","","",""
"null","","348458","SARL_v6k3hhcfwz","msl000057","freq_resp","","","img/green_2bandit_a.png","70","img/green_2bandit_a.png","70","test","","","","","","","","","1","","","","","","","","","","",""
"null","","348614","SARL_v6k3hhcfwz","msl000057","fixation","","","img/fixation.png","null","","","test","","","","","","","","","","","","","","","","","","","",""
"305","","348923","SARL_v6k3hhcfwz","msl000057","freq","","","img/green_2bandit_a2.png","70","","70","test","1","","","square","circle","8","8","8","1","1","","","","","","","","","",""
"null","","349424","SARL_v6k3hhcfwz","msl000057","freq_resp","","","img/green_2bandit_a.png","70","img/green_2bandit_a.png","70","test","","","","","","","","","1","","","","","","","","","","",""
"null","","349579","SARL_v6k3hhcfwz","msl000057","fixation","","","img/fixation.png","null","","","test","","","","","","","","","","","","","","","","","","","",""
"307","","349891","SARL_v6k3hhcfwz","msl000057","freq","","","img/green_2bandit_a2.png","70","","70","test","1","","","square","circle","9","9","9","1","1","","","","","","","","","",""
"null","","350389","SARL_v6k3hhcfwz","msl000057","freq_resp","","","img/green_2bandit_a.png","70","img/green_2bandit_a.png","70","test","","","","","","","","","1","","","","","","","","","","",""
"null","","350545","SARL_v6k3hhcfwz","msl000057","fixation","","","img/fixation.png","null","","","test","","","","","","","","","","","","","","","","","","","",""
"294","","350844","SARL_v6k3hhcfwz","msl000057","freq","","","img/green_2bandit_a2.png","70","","70","test","1","","","square","circle","10","10","10","1","1","","","","","","","","","",""
"null","","351355","SARL_v6k3hhcfwz","msl000057","freq_resp","","","img/green_2bandit_a.png","70","img/green_2bandit_a.png","70","test","","","","","","","","","1","","","","","","","","","","",""
"null","","351510","SARL_v6k3hhcfwz","msl000057","fixation","","","img/fixation.png","null","","","test","","","","","","","","","","","","","","","","","","","",""
"283","","351799","SARL_v6k3hhcfwz","msl000057","freq","","","img/green_2bandit_a2.png","70","","70","test","1","","","square","circle","11","11","11","1","1","","","","","","","","","",""
"null","","352322","SARL_v6k3hhcfwz","msl000057","freq_resp","","","img/green_2bandit_a.png","70","img/green_2bandit_a.png","70","test","","","","","","","","","1","","","","","","","","","","",""
"null","","352477","SARL_v6k3hhcfwz","msl000057","fixation","","","img/fixation.png","null","","","test","","","","","","","","","","","","","","","","","","","",""
"280","","352762","SARL_v6k3hhcfwz","msl000057","freq","","","img/green_2bandit_a2.png","70","","70","test","1","","","square","circle","12","12","12","1","1","","","","","","","","","",""
"null","","353288","SARL_v6k3hhcfwz","msl000057","freq_resp","","","img/green_2bandit_a.png","70","img/green_2bandit_a.png","70","test","","","","","","","","","1","","","","","","","","","","",""
"null","","353444","SARL_v6k3hhcfwz","msl000057","fixation","","","img/fixation.png","null","","","test","","","","","","","","","","","","","","","","","","","",""
"277","","353727","SARL_v6k3hhcfwz","msl000057","freq","","","img/green_2bandit_a2.png","70","","70","test","1","","","square","circle","13","13","13","1","1","","","","","","","","","",""
"null","","354256","SARL_v6k3hhcfwz","msl000057","freq_resp","","","img/green_2bandit_a.png","70","img/green_2bandit_a.png","70","test","","","","","","","","","1","","","","","","","","","","",""
"null","","354411","SARL_v6k3hhcfwz","msl000057","fixation","","","img/fixation.png","null","","","test","","","","","","","","","","","","","","","","","","","",""
"253","","354668","SARL_v6k3hhcfwz","msl000057","freq","","","img/green_2bandit_a2.png","70","","70","test","1","","","square","circle","14","14","14","1","1","","","","","","","","","",""
"null","","355221","SARL_v6k3hhcfwz","msl000057","freq_resp","","","img/green_2bandit_a.png","70","img/green_2bandit_a.png","70","test","","","","","","","","","1","","","","","","","","","","",""
"null","","355377","SARL_v6k3hhcfwz","msl000057","fixation","","","img/fixation.png","null","","","test","","","","","","","","","","","","","","","","","","","",""
"541","","355922","SARL_v6k3hhcfwz","msl000057","infreq","","","img/orange_2bandit_a2.png","68","","68","test","1","","","square","circle","15","15","15","1","1","","","","","","","","","",""
"null","","356187","SARL_v6k3hhcfwz","msl000057","infreq_resp","","","img/orange_2bandit_a.png","68","img/orange_2bandit_a.png","68","test","","","","","","","","","1","","","","","","","","","","",""
"null","","356343","SARL_v6k3hhcfwz","msl000057","fixation","","","img/fixation.png","null","","","test","","","","","","","","","","","","","","","","","","","",""
"495","","356841","SARL_v6k3hhcfwz","msl000057","freq","","","img/green_2bandit_a2.png","70","","70","test","1","","","square","circle","16","16","16","1","1","","","","","","","","","",""
"null","","357152","SARL_v6k3hhcfwz","msl000057","freq_resp","","","img/green_2bandit_a.png","70","img/green_2bandit_a.png","70","test","","","","","","","","","1","","","","","","","","","","",""
"null","","357307","SARL_v6k3hhcfwz","msl000057","fixation","","","img/fixation.png","null","","","test","","","","","","","","","","","","","","","","","","","",""
"368","","357679","SARL_v6k3hhcfwz","msl000057","infreq","","","img/orange_2bandit_a2.png","68","","68","test","1","","","square","circle","17","17","17","1","1","","","","","","","","","",""
"null","","358117","SARL_v6k3hhcfwz","msl000057","infreq_resp","","","img/orange_2bandit_a.png","68","img/orange_2bandit_a.png","68","test","","","","","","","","","1","","","","","","","","","","",""
"null","","358273","SARL_v6k3hhcfwz","msl000057","fixation","","","img/fixation.png","null","","","test","","","","","","","","","","","","","","","","","","","",""
"386","","358664","SARL_v6k3hhcfwz","msl000057","freq","","","img/green_2bandit_a2.png","70","","70","test","1","","","square","circle","18","18","18","1","1","","","","","","","","","",""
"null","","359082","SARL_v6k3hhcfwz","msl000057","freq_resp","","","img/green_2bandit_a.png","70","img/green_2bandit_a.png","70","test","","","","","","","","","1","","","","","","","","","","",""
"null","","359238","SARL_v6k3hhcfwz","msl000057","fixation","","","img/fixation.png","null","","","test","","","","","","","","","","","","","","","","","","","",""
"505","","359748","SARL_v6k3hhcfwz","msl000057","freq","","","img/green_2bandit_a2.png","70","","70","test","1","","","square","circle","19","19","19","1","1","","","","","","","","","",""
"null","","360048","SARL_v6k3hhcfwz","msl000057","freq_resp","","","img/green_2bandit_a.png","70","img/green_2bandit_a.png","70","test","","","","","","","","","1","","","","","","","","","","",""
"null","","360204","SARL_v6k3hhcfwz","msl000057","fixation","","","img/fixation.png","null","","","test","","","","","","","","","","","","","","","","","","","",""
"308","","360515","SARL_v6k3hhcfwz","msl000057","freq","","","img/green_2bandit_a2.png","70","","70","test","1","","","square","circle","20","20","20","1","1","","","","","","","","","",""
"null","","361013","SARL_v6k3hhcfwz","msl000057","freq_resp","","","img/green_2bandit_a.png","70","img/green_2bandit_a.png","70","test","","","","","","","","","1","","","","","","","","","","",""
"null","","361168","SARL_v6k3hhcfwz","msl000057","fixation","","","img/fixation.png","null","","","test","","","","","","","","","","","","","","","","","","","",""
"335","","361510","SARL_v6k3hhcfwz","msl000057","freq","","","img/green_2bandit_a2.png","70","","70","test","1","","","square","circle","21","21","21","1","1","","","","","","","","","",""
"null","","361981","SARL_v6k3hhcfwz","msl000057","freq_resp","","","img/green_2bandit_a.png","70","img/green_2bandit_a.png","70","test","","","","","","","","","1","","","","","","","","","","",""
"null","","362136","SARL_v6k3hhcfwz","msl000057","fixation","","","img/fixation.png","null","","","test","","","","","","","","","","","","","","","","","","","",""
"527","","362669","SARL_v6k3hhcfwz","msl000057","rl","","","img/black_2bandit_a2.png","74","","0","test","","","1","square","circle","22","","0","1","","74","0.2","0.8","0.24206158740378747","0.8","0.2","0.8","square","1","0"
"null","","363424","SARL_v6k3hhcfwz","msl000057","feedback","","","img/yay_L_a.png","null","","na","test","","","","","","","","","1","","74","0.2","0.8","","","","0.8","","1",""
"534","","363963","SARL_v6k3hhcfwz","msl000057","freq","","","img/green_2bandit_a2.png","70","","70","test","1","","","square","circle","23","22","1","2","1","","","","","","","","","",""
"null","","364236","SARL_v6k3hhcfwz","msl000057","freq_resp","","","img/green_2bandit_a.png","70","img/green_2bandit_a.png","70","test","","","","","","","","","2","","","","","","","","","","",""
"null","","364390","SARL_v6k3hhcfwz","msl000057","fixation","","","img/fixation.png","null","","","test","","","","","","","","","","","","","","","","","","","",""
"355","","364750","SARL_v6k3hhcfwz","msl000057","freq","","","img/green_2bandit_a2.png","70","","70","test","1","","","square","circle","24","23","2","2","1","","","","","","","","","",""
"null","","365201","SARL_v6k3hhcfwz","msl000057","freq_resp","","","img/green_2bandit_a.png","70","img/green_2bandit_a.png","70","test","","","","","","","","","2","","","","","","","","","","",""
"null","","365357","SARL_v6k3hhcfwz","msl000057","fixation","","","img/fixation.png","null","","","test","","","","","","","","","","","","","","","","","","","",""
"329","","365691","SARL_v6k3hhcfwz","msl000057","freq","","","img/green_2bandit_a2.png","70","","70","test","1","","","square","circle","25","24","3","2","1","","","","","","","","","",""
"null","","366167","SARL_v6k3hhcfwz","msl000057","freq_resp","","","img/green_2bandit_a.png","70","img/green_2bandit_a.png","70","test","","","","","","","","","2","","","","","","","","","","",""
"null","","366323","SARL_v6k3hhcfwz","msl000057","fixation","","","img/fixation.png","null","","","test","","","","","","","","","","","","","","","","","","","",""
"303","","366633","SARL_v6k3hhcfwz","msl000057","freq","","","img/green_2bandit_a2.png","70","","70","test","1","","","square","circle","26","25","4","2","1","","","","","","","","","",""
"null","","367135","SARL_v6k3hhcfwz","msl000057","freq_resp","","","img/green_2bandit_a.png","70","img/green_2bandit_a.png","70","test","","","","","","","","","2","","","","","","","","","","",""
"null","","367291","SARL_v6k3hhcfwz","msl000057","fixation","","","img/fixation.png","null","","","test","","","","","","","","","","","","","","","","","","","",""
"305","","367601","SARL_v6k3hhcfwz","msl000057","freq","","","img/green_2bandit_a2.png","70","","70","test","1","","","square","circle","27","26","5","2","1","","","","","","","","","",""
"null","","368101","SARL_v6k3hhcfwz","msl000057","freq_resp","","","img/green_2bandit_a.png","70","img/green_2bandit_a.png","70","test","","","","","","","","","2","","","","","","","","","","",""
"null","","368258","SARL_v6k3hhcfwz","msl000057","fixation","","","img/fixation.png","null","","","test","","","","","","","","","","","","","","","","","","","",""
"298","","368560","SARL_v6k3hhcfwz","msl000057","freq","","","img/green_2bandit_a2.png","70","","70","test","1","","","square","circle","28","27","6","2","1","","","","","","","","","",""
"null","","369068","SARL_v6k3hhcfwz","msl000057","freq_resp","","","img/green_2bandit_a.png","70","img/green_2bandit_a.png","70","test","","","","","","","","","2","","","","","","","","","","",""
"null","","369222","SARL_v6k3hhcfwz","msl000057","fixation","","","img/fixation.png","null","","","test","","","","","","","","","","","","","","","","","","","",""
"360","","369589","SARL_v6k3hhcfwz","msl000057","infreq","","","img/orange_2bandit_a2.png","68","","68","test","1","","","square","circle","29","28","7","2","1","","","","","","","","","",""
"null","","370035","SARL_v6k3hhcfwz","msl000057","infreq_resp","","","img/orange_2bandit_a.png","68","img/orange_2bandit_a.png","68","test","","","","","","","","","2","","","","","","","","","","",""
"null","","370190","SARL_v6k3hhcfwz","msl000057","fixation","","","img/fixation.png","null","","","test","","","","","","","","","","","","","","","","","","","",""
"339","","370535","SARL_v6k3hhcfwz","msl000057","freq","","","img/green_2bandit_a2.png","70","","70","test","1","","","square","circle","30","29","8","2","1","","","","","","","","","",""
"null","","371001","SARL_v6k3hhcfwz","msl000057","freq_resp","","","img/green_2bandit_a.png","70","img/green_2bandit_a.png","70","test","","","","","","","","","2","","","","","","","","","","",""
"null","","371158","SARL_v6k3hhcfwz","msl000057","fixation","","","img/fixation.png","null","","","test","","","","","","","","","","","","","","","","","","","",""
"329","","371491","SARL_v6k3hhcfwz","msl000057","freq","","","img/green_2bandit_a2.png","70","","70","test","1","","","square","circle","31","30","9","2","1","","","","","","","","","",""
"null","","371968","SARL_v6k3hhcfwz","msl000057","freq_resp","","","img/green_2bandit_a.png","70","img/green_2bandit_a.png","70","test","","","","","","","","","2","","","","","","","","","","",""
"null","","372125","SARL_v6k3hhcfwz","msl000057","fixation","","","img/fixation.png","null","","","test","","","","","","","","","","","","","","","","","","","",""
"475","","372604","SARL_v6k3hhcfwz","msl000057","freq","","","img/green_2bandit_a2.png","70","","70","test","1","","","square","circle","32","31","10","2","1","","","","","","","","","",""
"null","","372935","SARL_v6k3hhcfwz","msl000057","freq_resp","","","img/green_2bandit_a.png","70","img/green_2bandit_a.png","70","test","","","","","","","","","2","","","","","","","","","","",""
"null","","373091","SARL_v6k3hhcfwz","msl000057","fixation","","","img/fixation.png","null","","","test","","","","","","","","","","","","","","","","","","","",""
"503","","373599","SARL_v6k3hhcfwz","msl000057","infreq","","","img/orange_2bandit_a2.png","68","","68","test","1","","","square","circle","33","32","11","2","1","","","","","","","","","",""
"null","","373901","SARL_v6k3hhcfwz","msl000057","infreq_resp","","","img/orange_2bandit_a.png","68","img/orange_2bandit_a.png","68","test","","","","","","","","","2","","","","","","","","","","",""
"null","","374056","SARL_v6k3hhcfwz","msl000057","fixation","","","img/fixation.png","null","","","test","","","","","","","","","","","","","","","","","","","",""
"311","","374372","SARL_v6k3hhcfwz","msl000057","freq","","","img/green_2bandit_a2.png","70","","70","test","1","","","square","circle","34","33","12","2","1","","","","","","","","","",""
"null","","374867","SARL_v6k3hhcfwz","msl000057","freq_resp","","","img/green_2bandit_a.png","70","img/green_2bandit_a.png","70","test","","","","","","","","","2","","","","","","","","","","",""
"null","","375021","SARL_v6k3hhcfwz","msl000057","fixation","","","img/fixation.png","null","","","test","","","","","","","","","","","","","","","","","","","",""
"484","","375510","SARL_v6k3hhcfwz","msl000057","freq","","","img/green_2bandit_a2.png","70","","70","test","1","","","square","circle","35","34","13","2","1","","","","","","","","","",""
"null","","375835","SARL_v6k3hhcfwz","msl000057","freq_resp","","","img/green_2bandit_a.png","70","img/green_2bandit_a.png","70","test","","","","","","","","","2","","","","","","","","","","",""
"null","","375991","SARL_v6k3hhcfwz","msl000057","fixation","","","img/fixation.png","null","","","test","","","","","","","","","","","","","","","","","","","",""
"390","","376388","SARL_v6k3hhcfwz","msl000057","freq","","","img/green_2bandit_a2.png","70","","70","test","1","","","square","circle","36","35","14","2","1","","","","","","","","","",""
"null","","376804","SARL_v6k3hhcfwz","msl000057","freq_resp","","","img/green_2bandit_a.png","70","img/green_2bandit_a.png","70","test","","","","","","","","","2","","","","","","","","","","",""
"null","","376959","SARL_v6k3hhcfwz","msl000057","fixation","","","img/fixation.png","null","","","test","","","","","","","","","","","","","","","","","","","",""
"294","","377259","SARL_v6k3hhcfwz","msl000057","freq","","","img/green_2bandit_a2.png","70","","70","test","1","","","square","circle","37","36","15","2","1","","","","","","","","","",""
"null","","377771","SARL_v6k3hhcfwz","msl000057","freq_resp","","","img/green_2bandit_a.png","70","img/green_2bandit_a.png","70","test","","","","","","","","","2","","","","","","","","","","",""
"null","","377926","SARL_v6k3hhcfwz","msl000057","fixation","","","img/fixation.png","null","","","test","","","","","","","","","","","","","","","","","","","",""
"310","","378241","SARL_v6k3hhcfwz","msl000057","freq","","","img/green_2bandit_a2.png","70","","70","test","1","","","square","circle","38","37","16","2","1","","","","","","","","","",""
"null","","378736","SARL_v6k3hhcfwz","msl000057","freq_resp","","","img/green_2bandit_a.png","70","img/green_2bandit_a.png","70","test","","","","","","","","","2","","","","","","","","","","",""
"null","","378894","SARL_v6k3hhcfwz","msl000057","fixation","","","img/fixation.png","null","","","test","","","","","","","","","","","","","","","","","","","",""
"340","","379240","SARL_v6k3hhcfwz","msl000057","freq","","","img/green_2bandit_a2.png","70","","70","test","1","","","square","circle","39","38","17","2","1","","","","","","","","","",""
"null","","379705","SARL_v6k3hhcfwz","msl000057","freq_resp","","","img/green_2bandit_a.png","70","img/green_2bandit_a.png","70","test","","","","","","","","","2","","","","","","","","","","",""
"null","","379863","SARL_v6k3hhcfwz","msl000057","fixation","","","img/fixation.png","null","","","test","","","","","","","","","","","","","","","","","","","",""
"410","","380279","SARL_v6k3hhcfwz","msl000057","infreq","","","img/orange_2bandit_a2.png","68","","68","test","1","","","square","circle","40","39","18","2","1","","","","","","","","","",""
"null","","380675","SARL_v6k3hhcfwz","msl000057","infreq_resp","","","img/orange_2bandit_a.png","68","img/orange_2bandit_a.png","68","test","","","","","","","","","2","","","","","","","","","","",""
"null","","380829","SARL_v6k3hhcfwz","msl000057","fixation","","","img/fixation.png","null","","","test","","","","","","","","","","","","","","","","","","","",""
"404","","381238","SARL_v6k3hhcfwz","msl000057","freq","","","img/green_2bandit_a2.png","70","","70","test","1","","","square","circle","41","40","19","2","1","","","","","","","","","",""
"null","","381640","SARL_v6k3hhcfwz","msl000057","freq_resp","","","img/green_2bandit_a.png","70","img/green_2bandit_a.png","70","test","","","","","","","","","2","","","","","","","","","","",""
"null","","381796","SARL_v6k3hhcfwz","msl000057","fixation","","","img/fixation.png","null","","","test","","","","","","","","","","","","","","","","","","","",""
"330","","382130","SARL_v6k3hhcfwz","msl000057","freq","","","img/green_2bandit_a2.png","70","","70","test","1","","","square","circle","42","41","20","2","1","","","","","","","","","",""
"null","","382605","SARL_v6k3hhcfwz","msl000057","freq_resp","","","img/green_2bandit_a.png","70","img/green_2bandit_a.png","70","test","","","","","","","","","2","","","","","","","","","","",""
"null","","382760","SARL_v6k3hhcfwz","msl000057","fixation","","","img/fixation.png","null","","","test","","","","","","","","","","","","","","","","","","","",""
"283","","383048","SARL_v6k3hhcfwz","msl000057","freq","","","img/green_2bandit_a2.png","70","","70","test","1","","","square","circle","43","42","21","2","1","","","","","","","","","",""
"null","","383570","SARL_v6k3hhcfwz","msl000057","freq_resp","","","img/green_2bandit_a.png","70","img/green_2bandit_a.png","70","test","","","","","","","","","2","","","","","","","","","","",""
"null","","383727","SARL_v6k3hhcfwz","msl000057","fixation","","","img/fixation.png","null","","","test","","","","","","","","","","","","","","","","","","","",""
"622","","384354","SARL_v6k3hhcfwz","msl000057","rl","","","img/black_2bandit_a2.png","74","","0","test","","","1","square","circle","44","","0","2","","74","0.2","0.8","0.5662515027815584","0.8","0.2","0.8","square","2","0"
"null","","385110","SARL_v6k3hhcfwz","msl000057","feedback","","","img/yay_L_a.png","null","","na","test","","","","","","","","","2","","74","0.2","0.8","","","","0.8","","2",""
"363","","385477","SARL_v6k3hhcfwz","msl000057","freq","","","img/green_2bandit_a2.png","70","","70","test","1","","","square","circle","45","43","1","3","1","","","","","","","","","",""
"null","","385921","SARL_v6k3hhcfwz","msl000057","freq_resp","","","img/green_2bandit_a.png","70","img/green_2bandit_a.png","70","test","","","","","","","","","3","","","","","","","","","","",""
"null","","386075","SARL_v6k3hhcfwz","msl000057","fixation","","","img/fixation.png","null","","","test","","","","","","","","","","","","","","","","","","","",""
"271","","386352","SARL_v6k3hhcfwz","msl000057","freq","","","img/green_2bandit_a2.png","70","","70","test","1","","","square","circle","46","44","2","3","1","","","","","","","","","",""
"null","","386886","SARL_v6k3hhcfwz","msl000057","freq_resp","","","img/green_2bandit_a.png","70","img/green_2bandit_a.png","70","test","","","","","","","","","3","","","","","","","","","","",""
"null","","387043","SARL_v6k3hhcfwz","msl000057","fixation","","","img/fixation.png","null","","","test","","","","","","","","","","","","","","","","","","","",""
"288","","387335","SARL_v6k3hhcfwz","msl000057","freq","","","img/green_2bandit_a2.png","70","","70","test","1","","","square","circle","47","45","3","3","1","","","","","","","","","",""
"null","","387852","SARL_v6k3hhcfwz","msl000057","freq_resp","","","img/green_2bandit_a.png","70","img/green_2bandit_a.png","70","test","","","","","","","","","3","","","","","","","","","","",""
"null","","388007","SARL_v6k3hhcfwz","msl000057","fixation","","","img/fixation.png","null","","","test","","","","","","","","","","","","","","","","","","","",""
"322","","388335","SARL_v6k3hhcfwz","msl000057","freq","","","img/green_2bandit_a2.png","70","","70","test","1","","","square","circle","48","46","4","3","1","","","","","","","","","",""
"null","","388818","SARL_v6k3hhcfwz","msl000057","freq_resp","","","img/green_2bandit_a.png","70","img/green_2bandit_a.png","70","test","","","","","","","","","3","","","","","","","","","","",""
"null","","388974","SARL_v6k3hhcfwz","msl000057","fixation","","","img/fixation.png","null","","","test","","","","","","","","","","","","","","","","","","","",""
"415","","389392","SARL_v6k3hhcfwz","msl000057","infreq","","","img/orange_2bandit_a2.png","68","","68","test","1","","","square","circle","49","47","5","3","1","","","","","","","","","",""
"null","","389782","SARL_v6k3hhcfwz","msl000057","infreq_resp","","","img/orange_2bandit_a.png","68","img/orange_2bandit_a.png","68","test","","","","","","","","","3","","","","","","","","","","",""
"null","","389937","SARL_v6k3hhcfwz","msl000057","fixation","","","img/fixation.png","null","","","test","","","","","","","","","","","","","","","","","","","",""
"342","","390285","SARL_v6k3hhcfwz","msl000057","freq","","","img/green_2bandit_a2.png","70","","70","test","1","","","square","circle","50","48","6","3","1","","","","","","","","","",""
"null","","390747","SARL_v6k3hhcfwz","msl000057","freq_resp","","","img/green_2bandit_a.png","70","img/green_2bandit_a.png","70","test","","","","","","","","","3","","","","","","","","","","",""
"null","","390903","SARL_v6k3hhcfwz","msl000057","fixation","","","img/fixation.png","null","","","test","","","","","","","","","","","","","","","","","","","",""
"305","","391214","SARL_v6k3hhcfwz","msl000057","freq","","","img/green_2bandit_a2.png","70","","70","test","1","","","square","circle","51","49","7","3","1","","","","","","","","","",""
"null","","391713","SARL_v6k3hhcfwz","msl000057","freq_resp","","","img/green_2bandit_a.png","70","img/green_2bandit_a.png","70","test","","","","","","","","","3","","","","","","","","","","",""
"null","","391868","SARL_v6k3hhcfwz","msl000057","fixation","","","img/fixation.png","null","","","test","","","","","","","","","","","","","","","","","","","",""
"295","","392168","SARL_v6k3hhcfwz","msl000057","freq","","","img/green_2bandit_a2.png","70","","70","test","1","","","square","circle","52","50","8","3","1","","","","","","","","","",""
"null","","392678","SARL_v6k3hhcfwz","msl000057","freq_resp","","","img/green_2bandit_a.png","70","img/green_2bandit_a.png","70","test","","","","","","","","","3","","","","","","","","","","",""
"null","","392834","SARL_v6k3hhcfwz","msl000057","fixation","","","img/fixation.png","null","","","test","","","","","","","","","","","","","","","","","","","",""
"282","","393120","SARL_v6k3hhcfwz","msl000057","freq","","","img/green_2bandit_a2.png","70","","70","test","1","","","square","circle","53","51","9","3","1","","","","","","","","","",""
"null","","393644","SARL_v6k3hhcfwz","msl000057","freq_resp","","","img/green_2bandit_a.png","70","img/green_2bandit_a.png","70","test","","","","","","","","","3","","","","","","","","","","",""
"null","","393799","SARL_v6k3hhcfwz","msl000057","fixation","","","img/fixation.png","null","","","test","","","","","","","","","","","","","","","","","","","",""
"296","","394101","SARL_v6k3hhcfwz","msl000057","freq","","","img/green_2bandit_a2.png","70","","70","test","1","","","square","circle","54","52","10","3","1","","","","","","","","","",""
"null","","394610","SARL_v6k3hhcfwz","msl000057","freq_resp","","","img/green_2bandit_a.png","70","img/green_2bandit_a.png","70","test","","","","","","","","","3","","","","","","","","","","",""
"null","","394766","SARL_v6k3hhcfwz","msl000057","fixation","","","img/fixation.png","null","","","test","","","","","","","","","","","","","","","","","","","",""
"302","","395073","SARL_v6k3hhcfwz","msl000057","freq","","","img/green_2bandit_a2.png","70","","70","test","1","","","square","circle","55","53","11","3","1","","","","","","","","","",""
"null","","395576","SARL_v6k3hhcfwz","msl000057","freq_resp","","","img/green_2bandit_a.png","70","img/green_2bandit_a.png","70","test","","","","","","","","","3","","","","","","","","","","",""
"null","","395731","SARL_v6k3hhcfwz","msl000057","fixation","","","img/fixation.png","null","","","test","","","","","","","","","","","","","","","","","","","",""
"315","","396051","SARL_v6k3hhcfwz","msl000057","freq","","","img/green_2bandit_a2.png","70","","70","test","1","","","square","circle","56","54","12","3","1","","","","","","","","","",""
"null","","396543","SARL_v6k3hhcfwz","msl000057","freq_resp","","","img/green_2bandit_a.png","70","img/green_2bandit_a.png","70","test","","","","","","","","","3","","","","","","","","","","",""
"null","","396697","SARL_v6k3hhcfwz","msl000057","fixation","","","img/fixation.png","null","","","test","","","","","","","","","","","","","","","","","","","",""
"324","","397025","SARL_v6k3hhcfwz","msl000057","freq","","","img/green_2bandit_a2.png","70","","70","test","1","","","square","circle","57","55","13","3","1","","","","","","","","","",""
"null","","397506","SARL_v6k3hhcfwz","msl000057","freq_resp","","","img/green_2bandit_a.png","70","img/green_2bandit_a.png","70","test","","","","","","","","","3","","","","","","","","","","",""
"null","","397662","SARL_v6k3hhcfwz","msl000057","fixation","","","img/fixation.png","null","","","test","","","","","","","","","","","","","","","","","","","",""
"288","","397954","SARL_v6k3hhcfwz","msl000057","freq","","","img/green_2bandit_a2.png","70","","70","test","1","","","square","circle","58","56","14","3","1","","","","","","","","","",""
"null","","398472","SARL_v6k3hhcfwz","msl000057","freq_resp","","","img/green_2bandit_a.png","70","img/green_2bandit_a.png","70","test","","","","","","","","","3","","","","","","","","","","",""
"null","","398627","SARL_v6k3hhcfwz","msl000057","fixation","","","img/fixation.png","null","","","test","","","","","","","","","","","","","","","","","","","",""
"391","","399022","SARL_v6k3hhcfwz","msl000057","infreq","","","img/orange_2bandit_a2.png","68","","68","test","1","","","square","circle","59","57","15","3","1","","","","","","","","","",""
"null","","399437","SARL_v6k3hhcfwz","msl000057","infreq_resp","","","img/orange_2bandit_a.png","68","img/orange_2bandit_a.png","68","test","","","","","","","","","3","","","","","","","","","","",""
"null","","399594","SARL_v6k3hhcfwz","msl000057","fixation","","","img/fixation.png","null","","","test","","","","","","","","","","","","","","","","","","","",""
"324","","399921","SARL_v6k3hhcfwz","msl000057","freq","","","img/green_2bandit_a2.png","70","","70","test","1","","","square","circle","60","58","16","3","1","","","","","","","","","",""
"null","","400403","SARL_v6k3hhcfwz","msl000057","freq_resp","","","img/green_2bandit_a.png","70","img/green_2bandit_a.png","70","test","","","","","","","","","3","","","","","","","","","","",""
"null","","400559","SARL_v6k3hhcfwz","msl000057","fixation","","","img/fixation.png","null","","","test","","","","","","","","","","","","","","","","","","","",""
"332","","400896","SARL_v6k3hhcfwz","msl000057","freq","","","img/green_2bandit_a2.png","70","","70","test","1","","","square","circle","61","59","17","3","1","","","","","","","","","",""
"null","","401370","SARL_v6k3hhcfwz","msl000057","freq_resp","","","img/green_2bandit_a.png","70","img/green_2bandit_a.png","70","test","","","","","","","","","3","","","","","","","","","","",""
"null","","401526","SARL_v6k3hhcfwz","msl000057","fixation","","","img/fixation.png","null","","","test","","","","","","","","","","","","","","","","","","","",""
"289","","401820","SARL_v6k3hhcfwz","msl000057","freq","","","img/green_2bandit_a2.png","70","","70","test","1","","","square","circle","62","60","18","3","1","","","","","","","","","",""
"null","","402336","SARL_v6k3hhcfwz","msl000057","freq_resp","","","img/green_2bandit_a.png","70","img/green_2bandit_a.png","70","test","","","","","","","","","3","","","","","","","","","","",""
"null","","402492","SARL_v6k3hhcfwz","msl000057","fixation","","","img/fixation.png","null","","","test","","","","","","","","","","","","","","","","","","","",""
"302","","402797","SARL_v6k3hhcfwz","msl000057","freq","","","img/green_2bandit_a2.png","70","","70","test","1","","","square","circle","63","61","19","3","1","","","","","","","","","",""
"null","","403301","SARL_v6k3hhcfwz","msl000057","freq_resp","","","img/green_2bandit_a.png","70","img/green_2bandit_a.png","70","test","","","","","","","","","3","","","","","","","","","","",""
"null","","403457","SARL_v6k3hhcfwz","msl000057","fixation","","","img/fixation.png","null","","","test","","","","","","","","","","","","","","","","","","","",""
"305","","403767","SARL_v6k3hhcfwz","msl000057","freq","","","img/green_2bandit_a2.png","70","","70","test","1","","","square","circle","64","62","20","3","1","","","","","","","","","",""
"null","","404268","SARL_v6k3hhcfwz","msl000057","freq_resp","","","img/green_2bandit_a.png","70","img/green_2bandit_a.png","70","test","","","","","","","","","3","","","","","","","","","","",""
"null","","404422","SARL_v6k3hhcfwz","msl000057","fixation","","","img/fixation.png","null","","","test","","","","","","","","","","","","","","","","","","","",""
"384","","404811","SARL_v6k3hhcfwz","msl000057","infreq","","","img/orange_2bandit_a2.png","68","","68","test","1","","","square","circle","65","63","21","3","1","","","","","","","","","",""
"null","","405233","SARL_v6k3hhcfwz","msl000057","infreq_resp","","","img/orange_2bandit_a.png","68","img/orange_2bandit_a.png","68","test","","","","","","","","","3","","","","","","","","","","",""
"null","","405388","SARL_v6k3hhcfwz","msl000057","fixation","","","img/fixation.png","null","","","test","","","","","","","","","","","","","","","","","","","",""
"355","","405748","SARL_v6k3hhcfwz","msl000057","freq","","","img/green_2bandit_a2.png","70","","70","test","1","","","square","circle","66","64","22","3","1","","","","","","","","","",""
"null","","406199","SARL_v6k3hhcfwz","msl000057","freq_resp","","","img/green_2bandit_a.png","70","img/green_2bandit_a.png","70","test","","","","","","","","","3","","","","","","","","","","",""
"null","","406354","SARL_v6k3hhcfwz","msl000057","fixation","","","img/fixation.png","null","","","test","","","","","","","","","","","","","","","","","","","",""
"470","","406828","SARL_v6k3hhcfwz","msl000057","freq","","","img/green_2bandit_a2.png","70","","70","test","1","","","square","circle","67","65","23","3","1","","","","","","","","","",""
"null","","407165","SARL_v6k3hhcfwz","msl000057","freq_resp","","","img/green_2bandit_a.png","70","img/green_2bandit_a.png","70","test","","","","","","","","","3","","","","","","","","","","",""
"null","","407320","SARL_v6k3hhcfwz","msl000057","fixation","","","img/fixation.png","null","","","test","","","","","","","","","","","","","","","","","","","",""
"299","","407624","SARL_v6k3hhcfwz","msl000057","freq","","","img/green_2bandit_a2.png","70","","70","test","1","","","square","circle","68","66","24","3","1","","","","","","","","","",""
"null","","408132","SARL_v6k3hhcfwz","msl000057","freq_resp","","","img/green_2bandit_a.png","70","img/green_2bandit_a.png","70","test","","","","","","","","","3","","","","","","","","","","",""
"null","","408287","SARL_v6k3hhcfwz","msl000057","fixation","","","img/fixation.png","null","","","test","","","","","","","","","","","","","","","","","","","",""
"325","","408619","SARL_v6k3hhcfwz","msl000057","freq","","","img/green_2bandit_a2.png","70","","70","test","1","","","square","circle","69","67","25","3","1","","","","","","","","","",""
"null","","409099","SARL_v6k3hhcfwz","msl000057","freq_resp","","","img/green_2bandit_a.png","70","img/green_2bandit_a.png","70","test","","","","","","","","","3","","","","","","","","","","",""
"null","","409255","SARL_v6k3hhcfwz","msl000057","fixation","","","img/fixation.png","null","","","test","","","","","","","","","","","","","","","","","","","",""
"316","","409577","SARL_v6k3hhcfwz","msl000057","freq","","","img/green_2bandit_a2.png","70","","70","test","1","","","square","circle","70","68","26","3","1","","","","","","","","","",""
"null","","410067","SARL_v6k3hhcfwz","msl000057","freq_resp","","","img/green_2bandit_a.png","70","img/green_2bandit_a.png","70","test","","","","","","","","","3","","","","","","","","","","",""
"null","","410223","SARL_v6k3hhcfwz","msl000057","fixation","","","img/fixation.png","null","","","test","","","","","","","","","","","","","","","","","","","",""
"559","","410787","SARL_v6k3hhcfwz","msl000057","rl","","","img/black_2bandit_a2.png","74","","0","test","","","1","square","circle","71","","0","3","","74","0.2","0.8","0.05160967239225478","0.8","0.2","0.8","square","3","0"
"null","","411542","SARL_v6k3hhcfwz","msl000057","feedback","","","img/yay_L_a.png","null","","na","test","","","","","","","","","3","","74","0.2","0.8","","","","0.8","","3",""
"295","","411841","SARL_v6k3hhcfwz","msl000057","freq","","","img/green_2bandit_a2.png","70","","70","test","1","","","square","circle","72","69","1","4","1","","","","","","","","","",""
"null","","412352","SARL_v6k3hhcfwz","msl000057","freq_resp","","","img/green_2bandit_a.png","70","img/green_2bandit_a.png","70","test","","","","","","","","","4","","","","","","","","","","",""
"null","","412508","SARL_v6k3hhcfwz","msl000057","fixation","","","img/fixation.png","null","","","test","","","","","","","","","","","","","","","","","","","",""
"271","","412784","SARL_v6k3hhcfwz","msl000057","freq","","","img/green_2bandit_a2.png","70","","70","test","1","","","square","circle","73","70","2","4","1","","","","","","","","","",""
"null","","413319","SARL_v6k3hhcfwz","msl000057","freq_resp","","","img/green_2bandit_a.png","70","img/green_2bandit_a.png","70","test","","","","","","","","","4","","","","","","","","","","",""
"null","","413475","SARL_v6k3hhcfwz","msl000057","fixation","","","img/fixation.png","null","","","test","","","","","","","","","","","","","","","","","","","",""
"244","","413724","SARL_v6k3hhcfwz","msl000057","freq","","","img/green_2bandit_a2.png","70","","70","test","1","","","square","circle","74","71","3","4","1","","","","","","","","","",""
"null","","414285","SARL_v6k3hhcfwz","msl000057","freq_resp","","","img/green_2bandit_a.png","70","img/green_2bandit_a.png","70","test","","","","","","","","","4","","","","","","","","","","",""
"null","","414441","SARL_v6k3hhcfwz","msl000057","fixation","","","img/fixation.png","null","","","test","","","","","","","","","","","","","","","","","","","",""
"249","","414696","SARL_v6k3hhcfwz","msl000057","freq","","","img/green_2bandit_a2.png","70","","70","test","1","","","square","circle","75","72","4","4","1","","","","","","","","","",""
"null","","415253","SARL_v6k3hhcfwz","msl000057","freq_resp","","","img/green_2bandit_a.png","70","img/green_2bandit_a.png","70","test","","","","","","","","","4","","","","","","","","","","",""
"null","","415408","SARL_v6k3hhcfwz","msl000057","fixation","","","img/fixation.png","null","","","test","","","","","","","","","","","","","","","","","","","",""
"282","","415695","SARL_v6k3hhcfwz","msl000057","freq","","","img/green_2bandit_a2.png","70","","70","test","1","","","square","circle","76","73","5","4","1","","","","","","","","","",""
"null","","416219","SARL_v6k3hhcfwz","msl000057","freq_resp","","","img/green_2bandit_a.png","70","img/green_2bandit_a.png","70","test","","","","","","","","","4","","","","","","","","","","",""
"null","","416375","SARL_v6k3hhcfwz","msl000057","fixation","","","img/fixation.png","null","","","test","","","","","","","","","","","","","","","","","","","",""
"279","","416658","SARL_v6k3hhcfwz","msl000057","freq","","","img/green_2bandit_a2.png","70","","70","test","1","","","square","circle","77","74","6","4","1","","","","","","","","","",""
"null","","417186","SARL_v6k3hhcfwz","msl000057","freq_resp","","","img/green_2bandit_a.png","70","img/green_2bandit_a.png","70","test","","","","","","","","","4","","","","","","","","","","",""
"null","","417342","SARL_v6k3hhcfwz","msl000057","fixation","","","img/fixation.png","null","","","test","","","","","","","","","","","","","","","","","","","",""
"290","","417637","SARL_v6k3hhcfwz","msl000057","freq","","","img/green_2bandit_a2.png","70","","70","test","1","","","square","circle","78","75","7","4","1","","","","","","","","","",""
"null","","418152","SARL_v6k3hhcfwz","msl000057","freq_resp","","","img/green_2bandit_a.png","70","img/green_2bandit_a.png","70","test","","","","","","","","","4","","","","","","","","","","",""
"null","","418308","SARL_v6k3hhcfwz","msl000057","fixation","","","img/fixation.png","null","","","test","","","","","","","","","","","","","","","","","","","",""
"279","","418591","SARL_v6k3hhcfwz","msl000057","freq","","","img/green_2bandit_a2.png","70","","70","test","1","","","square","circle","79","76","8","4","1","","","","","","","","","",""
"null","","419118","SARL_v6k3hhcfwz","msl000057","freq_resp","","","img/green_2bandit_a.png","70","img/green_2bandit_a.png","70","test","","","","","","","","","4","","","","","","","","","","",""
"null","","419275","SARL_v6k3hhcfwz","msl000057","fixation","","","img/fixation.png","null","","","test","","","","","","","","","","","","","","","","","","","",""
"270","","419550","SARL_v6k3hhcfwz","msl000057","freq","","","img/green_2bandit_a2.png","70","","70","test","1","","","square","circle","80","77","9","4","1","","","","","","","","","",""
"null","","420085","SARL_v6k3hhcfwz","msl000057","freq_resp","","","img/green_2bandit_a.png","70","img/green_2bandit_a.png","70","test","","","","","","","","","4","","","","","","","","","","",""
"null","","420240","SARL_v6k3hhcfwz","msl000057","fixation","","","img/fixation.png","null","","","test","","","","","","","","","","","","","","","","","","","",""
"263","","420508","SARL_v6k3hhcfwz","msl000057","freq","","","img/green_2bandit_a2.png","70","","70","test","1","","","square","circle","81","78","10","4","1","","","","","","","","","",""
"null","","421051","SARL_v6k3hhcfwz","msl000057","freq_resp","","","img/green_2bandit_a.png","70","img/green_2bandit_a.png","70","test","","","","","","","","","4","","","","","","","","","","",""
"null","","421207","SARL_v6k3hhcfwz","msl000057","fixation","","","img/fixation.png","null","","","test","","","","","","","","","","","","","","","","","","","",""
"244","","421456","SARL_v6k3hhcfwz","msl000057","freq","","","img/green_2bandit_a2.png","70","","70","test","1","","","square","circle","82","79","11","4","1","","","","","","","","","",""
"null","","422017","SARL_v6k3hhcfwz","msl000057","freq_resp","","","img/green_2bandit_a.png","70","img/green_2bandit_a.png","70","test","","","","","","","","","4","","","","","","","","","","",""
"null","","422173","SARL_v6k3hhcfwz","msl000057","fixation","","","img/fixation.png","null","","","test","","","","","","","","","","","","","","","","","","","",""
"402","","422581","SARL_v6k3hhcfwz","msl000057","infreq","","","img/orange_2bandit_a2.png","68","","68","test","1","","","square","circle","83","80","12","4","1","","","","","","","","","",""
"null","","422985","SARL_v6k3hhcfwz","msl000057","infreq_resp","","","img/orange_2bandit_a.png","68","img/orange_2bandit_a.png","68","test","","","","","","","","","4","","","","","","","","","","",""
"null","","423141","SARL_v6k3hhcfwz","msl000057","fixation","","","img/fixation.png","null","","","test","","","","","","","","","","","","","","","","","","","",""
"279","","423424","SARL_v6k3hhcfwz","msl000057","freq","","","img/green_2bandit_a2.png","70","","70","test","1","","","square","circle","84","81","13","4","1","","","","","","","","","",""
"null","","423951","SARL_v6k3hhcfwz","msl000057","freq_resp","","","img/green_2bandit_a.png","70","img/green_2bandit_a.png","70","test","","","","","","","","","4","","","","","","","","","","",""
"null","","424107","SARL_v6k3hhcfwz","msl000057","fixation","","","img/fixation.png","null","","","test","","","","","","","","","","","","","","","","","","","",""
"257","","424370","SARL_v6k3hhcfwz","msl000057","freq","","","img/green_2bandit_a2.png","70","","70","test","1","","","square","circle","85","82","14","4","1","","","","","","","","","",""
"null","","424918","SARL_v6k3hhcfwz","msl000057","freq_resp","","","img/green_2bandit_a.png","70","img/green_2bandit_a.png","70","test","","","","","","","","","4","","","","","","","","","","",""
"null","","425074","SARL_v6k3hhcfwz","msl000057","fixation","","","img/fixation.png","null","","","test","","","","","","","","","","","","","","","","","","","",""
"263","","425341","SARL_v6k3hhcfwz","msl000057","freq","","","img/green_2bandit_a2.png","70","","70","test","1","","","square","circle","86","83","15","4","1","","","","","","","","","",""
"null","","425884","SARL_v6k3hhcfwz","msl000057","freq_resp","","","img/green_2bandit_a.png","70","img/green_2bandit_a.png","70","test","","","","","","","","","4","","","","","","","","","","",""
"null","","426039","SARL_v6k3hhcfwz","msl000057","fixation","","","img/fixation.png","null","","","test","","","","","","","","","","","","","","","","","","","",""
"290","","426334","SARL_v6k3hhcfwz","msl000057","freq","","","img/green_2bandit_a2.png","70","","70","test","1","","","square","circle","87","84","16","4","1","","","","","","","","","",""
"null","","426851","SARL_v6k3hhcfwz","msl000057","freq_resp","","","img/green_2bandit_a.png","70","img/green_2bandit_a.png","70","test","","","","","","","","","4","","","","","","","","","","",""
"null","","427006","SARL_v6k3hhcfwz","msl000057","fixation","","","img/fixation.png","null","","","test","","","","","","","","","","","","","","","","","","","",""
"267","","427278","SARL_v6k3hhcfwz","msl000057","freq","","","img/green_2bandit_a2.png","70","","70","test","1","","","square","circle","88","85","17","4","1","","","","","","","","","",""
"null","","427817","SARL_v6k3hhcfwz","msl000057","freq_resp","","","img/green_2bandit_a.png","70","img/green_2bandit_a.png","70","test","","","","","","","","","4","","","","","","","","","","",""
"null","","427971","SARL_v6k3hhcfwz","msl000057","fixation","","","img/fixation.png","null","","","test","","","","","","","","","","","","","","","","","","","",""
"311","","428288","SARL_v6k3hhcfwz","msl000057","freq","","","img/green_2bandit_a2.png","70","","70","test","1","","","square","circle","89","86","18","4","1","","","","","","","","","",""
"null","","428783","SARL_v6k3hhcfwz","msl000057","freq_resp","","","img/green_2bandit_a.png","70","img/green_2bandit_a.png","70","test","","","","","","","","","4","","","","","","","","","","",""
"null","","428939","SARL_v6k3hhcfwz","msl000057","fixation","","","img/fixation.png","null","","","test","","","","","","","","","","","","","","","","","","","",""
"626","","429569","SARL_v6k3hhcfwz","msl000057","infreq","","","img/orange_2bandit_a2.png","68","","68","test","1","","","square","circle","90","87","19","4","1","","","","","","","","","",""
"null","","429749","SARL_v6k3hhcfwz","msl000057","infreq_resp","","","img/orange_2bandit_a.png","68","img/orange_2bandit_a.png","68","test","","","","","","","","","4","","","","","","","","","","",""
"null","","429905","SARL_v6k3hhcfwz","msl000057","fixation","","","img/fixation.png","null","","","test","","","","","","","","","","","","","","","","","","","",""
"361","","430271","SARL_v6k3hhcfwz","msl000057","freq","","","img/green_2bandit_a2.png","70","","70","test","1","","","square","circle","91","88","20","4","1","","","","","","","","","",""
"null","","430715","SARL_v6k3hhcfwz","msl000057","freq_resp","","","img/green_2bandit_a.png","70","img/green_2bandit_a.png","70","test","","","","","","","","","4","","","","","","","","","","",""
"null","","430871","SARL_v6k3hhcfwz","msl000057","fixation","","","img/fixation.png","null","","","test","","","","","","","","","","","","","","","","","","","",""
"288","","431164","SARL_v6k3hhcfwz","msl000057","freq","","","img/green_2bandit_a2.png","70","","70","test","1","","","square","circle","92","89","21","4","1","","","","","","","","","",""
"null","","431681","SARL_v6k3hhcfwz","msl000057","freq_resp","","","img/green_2bandit_a.png","70","img/green_2bandit_a.png","70","test","","","","","","","","","4","","","","","","","","","","",""
"null","","431837","SARL_v6k3hhcfwz","msl000057","fixation","","","img/fixation.png","null","","","test","","","","","","","","","","","","","","","","","","","",""
"246","","432089","SARL_v6k3hhcfwz","msl000057","freq","","","img/green_2bandit_a2.png","70","","70","test","1","","","square","circle","93","90","22","4","1","","","","","","","","","",""
"null","","432649","SARL_v6k3hhcfwz","msl000057","freq_resp","","","img/green_2bandit_a.png","70","img/green_2bandit_a.png","70","test","","","","","","","","","4","","","","","","","","","","",""
"null","","432804","SARL_v6k3hhcfwz","msl000057","fixation","","","img/fixation.png","null","","","test","","","","","","","","","","","","","","","","","","","",""
"252","","433061","SARL_v6k3hhcfwz","msl000057","freq","","","img/green_2bandit_a2.png","70","","70","test","1","","","square","circle","94","91","23","4","1","","","","","","","","","",""
"null","","433615","SARL_v6k3hhcfwz","msl000057","freq_resp","","","img/green_2bandit_a.png","70","img/green_2bandit_a.png","70","test","","","","","","","","","4","","","","","","","","","","",""
"null","","433772","SARL_v6k3hhcfwz","msl000057","fixation","","","img/fixation.png","null","","","test","","","","","","","","","","","","","","","","","","","",""
"239","","434015","SARL_v6k3hhcfwz","msl000057","freq","","","img/green_2bandit_a2.png","70","","70","test","1","","","square","circle","95","92","24","4","1","","","","","","","","","",""
"null","","434583","SARL_v6k3hhcfwz","msl000057","freq_resp","","","img/green_2bandit_a.png","70","img/green_2bandit_a.png","70","test","","","","","","","","","4","","","","","","","","","","",""
"null","","434738","SARL_v6k3hhcfwz","msl000057","fixation","","","img/fixation.png","null","","","test","","","","","","","","","","","","","","","","","","","",""
"259","","435001","SARL_v6k3hhcfwz","msl000057","freq","","","img/green_2bandit_a2.png","70","","70","test","1","","","square","circle","96","93","25","4","1","","","","","","","","","",""
"null","","435548","SARL_v6k3hhcfwz","msl000057","freq_resp","","","img/green_2bandit_a.png","70","img/green_2bandit_a.png","70","test","","","","","","","","","4","","","","","","","","","","",""
"null","","435702","SARL_v6k3hhcfwz","msl000057","fixation","","","img/fixation.png","null","","","test","","","","","","","","","","","","","","","","","","","",""
"233","","435940","SARL_v6k3hhcfwz","msl000057","freq","","","img/green_2bandit_a2.png","70","","70","test","1","","","square","circle","97","94","26","4","1","","","","","","","","","",""
"null","","436512","SARL_v6k3hhcfwz","msl000057","freq_resp","","","img/green_2bandit_a.png","70","img/green_2bandit_a.png","70","test","","","","","","","","","4","","","","","","","","","","",""
"null","","436668","SARL_v6k3hhcfwz","msl000057","fixation","","","img/fixation.png","null","","","test","","","","","","","","","","","","","","","","","","","",""
"889","","437563","SARL_v6k3hhcfwz","msl000057","rl","","","img/black_2bandit_a2.png","74","","0","test","","","1","square","circle","98","","0","4","","74","0.2","0.8","0.36481594915728943","0.8","0.2","0.8","square","4","0"
"null","","438318","SARL_v6k3hhcfwz","msl000057","feedback","","","img/yay_L_a.png","null","","na","test","","","","","","","","","4","","74","0.2","0.8","","","","0.8","","4",""
"323","","438645","SARL_v6k3hhcfwz","msl000057","freq","","","img/green_2bandit_a2.png","70","","70","test","1","","","square","circle","99","95","1","5","1","","","","","","","","","",""
"null","","439127","SARL_v6k3hhcfwz","msl000057","freq_resp","","","img/green_2bandit_a.png","70","img/green_2bandit_a.png","70","test","","","","","","","","","5","","","","","","","","","","",""
"null","","439282","SARL_v6k3hhcfwz","msl000057","fixation","","","img/fixation.png","null","","","test","","","","","","","","","","","","","","","","","","","",""
"272","","439559","SARL_v6k3hhcfwz","msl000057","freq","","","img/green_2bandit_a2.png","70","","70","test","1","","","square","circle","100","96","2","5","1","","","","","","","","","",""
"null","","440092","SARL_v6k3hhcfwz","msl000057","freq_resp","","","img/green_2bandit_a.png","70","img/green_2bandit_a.png","70","test","","","","","","","","","5","","","","","","","","","","",""
"null","","440249","SARL_v6k3hhcfwz","msl000057","fixation","","","img/fixation.png","null","","","test","","","","","","","","","","","","","","","","","","","",""
"265","","440519","SARL_v6k3hhcfwz","msl000057","freq","","","img/green_2bandit_a2.png","70","","70","test","1","","","square","circle","101","97","3","5","1","","","","","","","","","",""
"null","","441060","SARL_v6k3hhcfwz","msl000057","freq_resp","","","img/green_2bandit_a.png","70","img/green_2bandit_a.png","70","test","","","","","","","","","5","","","","","","","","","","",""
"null","","441215","SARL_v6k3hhcfwz","msl000057","fixation","","","img/fixation.png","null","","","test","","","","","","","","","","","","","","","","","","","",""
"276","","441497","SARL_v6k3hhcfwz","msl000057","freq","","","img/green_2bandit_a2.png","70","","70","test","1","","","square","circle","102","98","4","5","1","","","","","","","","","",""
"null","","442027","SARL_v6k3hhcfwz","msl000057","freq_resp","","","img/green_2bandit_a.png","70","img/green_2bandit_a.png","70","test","","","","","","","","","5","","","","","","","","","","",""
"null","","442181","SARL_v6k3hhcfwz","msl000057","fixation","","","img/fixation.png","null","","","test","","","","","","","","","","","","","","","","","","","",""
"278","","442466","SARL_v6k3hhcfwz","msl000057","freq","","","img/green_2bandit_a2.png","70","","70","test","1","","","square","circle","103","99","5","5","1","","","","","","","","","",""
"null","","442993","SARL_v6k3hhcfwz","msl000057","freq_resp","","","img/green_2bandit_a.png","70","img/green_2bandit_a.png","70","test","","","","","","","","","5","","","","","","","","","","",""
"null","","443149","SARL_v6k3hhcfwz","msl000057","fixation","","","img/fixation.png","null","","","test","","","","","","","","","","","","","","","","","","","",""
"273","","443427","SARL_v6k3hhcfwz","msl000057","freq","","","img/green_2bandit_a2.png","70","","70","test","1","","","square","circle","104","100","6","5","1","","","","","","","","","",""
"null","","443960","SARL_v6k3hhcfwz","msl000057","freq_resp","","","img/green_2bandit_a.png","70","img/green_2bandit_a.png","70","test","","","","","","","","","5","","","","","","","","","","",""
"null","","444115","SARL_v6k3hhcfwz","msl000057","fixation","","","img/fixation.png","null","","","test","","","","","","","","","","","","","","","","","","","",""
"288","","444408","SARL_v6k3hhcfwz","msl000057","freq","","","img/green_2bandit_a2.png","70","","70","test","1","","","square","circle","105","101","7","5","1","","","","","","","","","",""
"null","","444926","SARL_v6k3hhcfwz","msl000057","freq_resp","","","img/green_2bandit_a.png","70","img/green_2bandit_a.png","70","test","","","","","","","","","5","","","","","","","","","","",""
"null","","445082","SARL_v6k3hhcfwz","msl000057","fixation","","","img/fixation.png","null","","","test","","","","","","","","","","","","","","","","","","","",""
"265","","445351","SARL_v6k3hhcfwz","msl000057","freq","","","img/green_2bandit_a2.png","70","","70","test","1","","","square","circle","106","102","8","5","1","","","","","","","","","",""
"null","","445891","SARL_v6k3hhcfwz","msl000057","freq_resp","","","img/green_2bandit_a.png","70","img/green_2bandit_a.png","70","test","","","","","","","","","5","","","","","","","","","","",""
"null","","446047","SARL_v6k3hhcfwz","msl000057","fixation","","","img/fixation.png","null","","","test","","","","","","","","","","","","","","","","","","","",""
"257","","446309","SARL_v6k3hhcfwz","msl000057","freq","","","img/green_2bandit_a2.png","70","","70","test","1","","","square","circle","107","103","9","5","1","","","","","","","","","",""
"null","","446858","SARL_v6k3hhcfwz","msl000057","freq_resp","","","img/green_2bandit_a.png","70","img/green_2bandit_a.png","70","test","","","","","","","","","5","","","","","","","","","","",""
"null","","447013","SARL_v6k3hhcfwz","msl000057","fixation","","","img/fixation.png","null","","","test","","","","","","","","","","","","","","","","","","","",""
"292","","447310","SARL_v6k3hhcfwz","msl000057","freq","","","img/green_2bandit_a2.png","70","","70","test","1","","","square","circle","108","104","10","5","1","","","","","","","","","",""
"null","","447824","SARL_v6k3hhcfwz","msl000057","freq_resp","","","img/green_2bandit_a.png","70","img/green_2bandit_a.png","70","test","","","","","","","","","5","","","","","","","","","","",""
"null","","447980","SARL_v6k3hhcfwz","msl000057","fixation","","","img/fixation.png","null","","","test","","","","","","","","","","","","","","","","","","","",""
"433","","448418","SARL_v6k3hhcfwz","msl000057","infreq","","","img/orange_2bandit_a2.png","68","","68","test","1","","","square","circle","109","105","11","5","1","","","","","","","","","",""
"null","","448791","SARL_v6k3hhcfwz","msl000057","infreq_resp","","","img/orange_2bandit_a.png","68","img/orange_2bandit_a.png","68","test","","","","","","","","","5","","","","","","","","","","",""
"null","","448947","SARL_v6k3hhcfwz","msl000057","fixation","","","img/fixation.png","null","","","test","","","","","","","","","","","","","","","","","","","",""
"344","","449297","SARL_v6k3hhcfwz","msl000057","freq","","","img/green_2bandit_a2.png","70","","70","test","1","","","square","circle","110","106","12","5","1","","","","","","","","","",""
"null","","449759","SARL_v6k3hhcfwz","msl000057","freq_resp","","","img/green_2bandit_a.png","70","img/green_2bandit_a.png","70","test","","","","","","","","","5","","","","","","","","","","",""
"null","","449915","SARL_v6k3hhcfwz","msl000057","fixation","","","img/fixation.png","null","","","test","","","","","","","","","","","","","","","","","","","",""
"264","","450184","SARL_v6k3hhcfwz","msl000057","freq","","","img/green_2bandit_a2.png","70","","70","test","1","","","square","circle","111","107","13","5","1","","","","","","","","","",""
"null","","450726","SARL_v6k3hhcfwz","msl000057","freq_resp","","","img/green_2bandit_a.png","70","img/green_2bandit_a.png","70","test","","","","","","","","","5","","","","","","","","","","",""
"null","","450882","SARL_v6k3hhcfwz","msl000057","fixation","","","img/fixation.png","null","","","test","","","","","","","","","","","","","","","","","","","",""
"270","","451157","SARL_v6k3hhcfwz","msl000057","freq","","","img/green_2bandit_a2.png","70","","70","test","1","","","square","circle","112","108","14","5","1","","","","","","","","","",""
"null","","451693","SARL_v6k3hhcfwz","msl000057","freq_resp","","","img/green_2bandit_a.png","70","img/green_2bandit_a.png","70","test","","","","","","","","","5","","","","","","","","","","",""
"null","","451849","SARL_v6k3hhcfwz","msl000057","fixation","","","img/fixation.png","null","","","test","","","","","","","","","","","","","","","","","","","",""
"282","","452135","SARL_v6k3hhcfwz","msl000057","freq","","","img/green_2bandit_a2.png","70","","70","test","1","","","square","circle","113","109","15","5","1","","","","","","","","","",""
"null","","452659","SARL_v6k3hhcfwz","msl000057","freq_resp","","","img/green_2bandit_a.png","70","img/green_2bandit_a.png","70","test","","","","","","","","","5","","","","","","","","","","",""
"null","","452815","SARL_v6k3hhcfwz","msl000057","fixation","","","img/fixation.png","null","","","test","","","","","","","","","","","","","","","","","","","",""
"274","","453094","SARL_v6k3hhcfwz","msl000057","freq","","","img/green_2bandit_a2.png","70","","70","test","1","","","square","circle","114","110","16","5","1","","","","","","","","","",""
"null","","453626","SARL_v6k3hhcfwz","msl000057","freq_resp","","","img/green_2bandit_a.png","70","img/green_2bandit_a.png","70","test","","","","","","","","","5","","","","","","","","","","",""
"null","","453782","SARL_v6k3hhcfwz","msl000057","fixation","","","img/fixation.png","null","","","test","","","","","","","","","","","","","","","","","","","",""
"251","","454038","SARL_v6k3hhcfwz","msl000057","freq","","","img/green_2bandit_a2.png","70","","70","test","1","","","square","circle","115","111","17","5","1","","","","","","","","","",""
"null","","454593","SARL_v6k3hhcfwz","msl000057","freq_resp","","","img/green_2bandit_a.png","70","img/green_2bandit_a.png","70","test","","","","","","","","","5","","","","","","","","","","",""
"null","","454748","SARL_v6k3hhcfwz","msl000057","fixation","","","img/fixation.png","null","","","test","","","","","","","","","","","","","","","","","","","",""
"299","","455052","SARL_v6k3hhcfwz","msl000057","freq","","","img/green_2bandit_a2.png","70","","70","test","1","","","square","circle","116","112","18","5","1","","","","","","","","","",""
"null","","455559","SARL_v6k3hhcfwz","msl000057","freq_resp","","","img/green_2bandit_a.png","70","img/green_2bandit_a.png","70","test","","","","","","","","","5","","","","","","","","","","",""
"null","","455715","SARL_v6k3hhcfwz","msl000057","fixation","","","img/fixation.png","null","","","test","","","","","","","","","","","","","","","","","","","",""
"265","","455985","SARL_v6k3hhcfwz","msl000057","freq","","","img/green_2bandit_a2.png","70","","70","test","1","","","square","circle","117","113","19","5","1","","","","","","","","","",""
"null","","456526","SARL_v6k3hhcfwz","msl000057","freq_resp","","","img/green_2bandit_a.png","70","img/green_2bandit_a.png","70","test","","","","","","","","","5","","","","","","","","","","",""
"null","","456681","SARL_v6k3hhcfwz","msl000057","fixation","","","img/fixation.png","null","","","test","","","","","","","","","","","","","","","","","","","",""
"444","","457130","SARL_v6k3hhcfwz","msl000057","infreq","","","img/orange_2bandit_a2.png","68","","68","test","1","","","square","circle","118","114","20","5","1","","","","","","","","","",""
"null","","457492","SARL_v6k3hhcfwz","msl000057","infreq_resp","","","img/orange_2bandit_a.png","68","img/orange_2bandit_a.png","68","test","","","","","","","","","5","","","","","","","","","","",""
"null","","457648","SARL_v6k3hhcfwz","msl000057","fixation","","","img/fixation.png","null","","","test","","","","","","","","","","","","","","","","","","","",""
"224","","457876","SARL_v6k3hhcfwz","msl000057","freq","","","img/green_2bandit_a2.png","70","","70","test","1","","","square","circle","119","115","21","5","1","","","","","","","","","",""
"null","","458459","SARL_v6k3hhcfwz","msl000057","freq_resp","","","img/green_2bandit_a.png","70","img/green_2bandit_a.png","70","test","","","","","","","","","5","","","","","","","","","","",""
"null","","458615","SARL_v6k3hhcfwz","msl000057","fixation","","","img/fixation.png","null","","","test","","","","","","","","","","","","","","","","","","","",""
"124","","458743","SARL_v6k3hhcfwz","msl000057","freq","","","img/green_2bandit_a2.png","70","","70","test","1","","","square","circle","120","116","22","5","1","","","","","","","","","",""
"null","","459425","SARL_v6k3hhcfwz","msl000057","freq_resp","","","img/green_2bandit_a.png","70","img/green_2bandit_a.png","70","test","","","","","","","","","5","","","","","","","","","","",""
"null","","459580","SARL_v6k3hhcfwz","msl000057","fixation","","","img/fixation.png","null","","","test","","","","","","","","","","","","","","","","","","","",""
"159","","459745","SARL_v6k3hhcfwz","msl000057","freq","","","img/green_2bandit_a2.png","70","","70","test","1","","","square","circle","121","117","23","5","1","","","","","","","","","",""
"null","","460392","SARL_v6k3hhcfwz","msl000057","freq_resp","","","img/green_2bandit_a.png","70","img/green_2bandit_a.png","70","test","","","","","","","","","5","","","","","","","","","","",""
"null","","460547","SARL_v6k3hhcfwz","msl000057","fixation","","","img/fixation.png","null","","","test","","","","","","","","","","","","","","","","","","","",""
"759","","461311","SARL_v6k3hhcfwz","msl000057","rl","","","img/black_2bandit_a2.png","74","","0","test","","","0","square","circle","122","","0","5","","74","0.2","0.8","0.9929407272420676","0.8","0.2","0.8","square","5","0"
"null","","462067","SARL_v6k3hhcfwz","msl000057","feedback","","","img/boo_L_a.png","null","","na","test","","","","","","","","","5","","74","0.2","0.8","","","","0.8","","5",""
"284","","462355","SARL_v6k3hhcfwz","msl000057","freq","","","img/green_2bandit_a2.png","70","","70","test","1","","","square","circle","123","118","1","6","1","","","","","","","","","",""
"null","","462877","SARL_v6k3hhcfwz","msl000057","freq_resp","","","img/green_2bandit_a.png","70","img/green_2bandit_a.png","70","test","","","","","","","","","6","","","","","","","","","","",""
"null","","463033","SARL_v6k3hhcfwz","msl000057","fixation","","","img/fixation.png","null","","","test","","","","","","","","","","","","","","","","","","","",""
"90","","463126","SARL_v6k3hhcfwz","msl000057","infreq","","","img/orange_2bandit_a2.png","70","","68","test","0","","","square","circle","124","119","2","6","0.9915966386554622","","","","","","","","","",""
"null","","463843","SARL_v6k3hhcfwz","msl000057","infreq_resp","","","img/orange_2bandit_a.png","70","img/orange_2bandit_a.png","68","test","","","","","","","","","6","","","","","","","","","","",""
"null","","463999","SARL_v6k3hhcfwz","msl000057","fixation","","","img/fixation.png","null","","","test","","","","","","","","","","","","","","","","","","","",""
"503","","464507","SARL_v6k3hhcfwz","msl000057","freq","","","img/green_2bandit_a2.png","70","","70","test","1","","","square","circle","125","120","3","6","0.9916666666666667","","","","","","","","","",""
"null","","464810","SARL_v6k3hhcfwz","msl000057","freq_resp","","","img/green_2bandit_a.png","70","img/green_2bandit_a.png","70","test","","","","","","","","","6","","","","","","","","","","",""
"null","","464966","SARL_v6k3hhcfwz","msl000057","fixation","","","img/fixation.png","null","","","test","","","","","","","","","","","","","","","","","","","",""
"408","","465378","SARL_v6k3hhcfwz","msl000057","freq","","","img/green_2bandit_a2.png","70","","70","test","1","","","square","circle","126","121","4","6","0.9917355371900827","","","","","","","","","",""
"null","","465776","SARL_v6k3hhcfwz","msl000057","freq_resp","","","img/green_2bandit_a.png","70","img/green_2bandit_a.png","70","test","","","","","","","","","6","","","","","","","","","","",""
"null","","465931","SARL_v6k3hhcfwz","msl000057","fixation","","","img/fixation.png","null","","","test","","","","","","","","","","","","","","","","","","","",""
"288","","466224","SARL_v6k3hhcfwz","msl000057","freq","","","img/green_2bandit_a2.png","70","","70","test","1","","","square","circle","127","122","5","6","0.9918032786885246","","","","","","","","","",""
"null","","466741","SARL_v6k3hhcfwz","msl000057","freq_resp","","","img/green_2bandit_a.png","70","img/green_2bandit_a.png","70","test","","","","","","","","","6","","","","","","","","","","",""
"null","","466897","SARL_v6k3hhcfwz","msl000057","fixation","","","img/fixation.png","null","","","test","","","","","","","","","","","","","","","","","","","",""
"296","","467198","SARL_v6k3hhcfwz","msl000057","freq","","","img/green_2bandit_a2.png","70","","70","test","1","","","square","circle","128","123","6","6","0.991869918699187","","","","","","","","","",""
"null","","467707","SARL_v6k3hhcfwz","msl000057","freq_resp","","","img/green_2bandit_a.png","70","img/green_2bandit_a.png","70","test","","","","","","","","","6","","","","","","","","","","",""
"null","","467862","SARL_v6k3hhcfwz","msl000057","fixation","","","img/fixation.png","null","","","test","","","","","","","","","","","","","","","","","","","",""
"269","","468137","SARL_v6k3hhcfwz","msl000057","freq","","","img/green_2bandit_a2.png","70","","70","test","1","","","square","circle","129","124","7","6","0.9919354838709677","","","","","","","","","",""
"null","","468673","SARL_v6k3hhcfwz","msl000057","freq_resp","","","img/green_2bandit_a.png","70","img/green_2bandit_a.png","70","test","","","","","","","","","6","","","","","","","","","","",""
"null","","468828","SARL_v6k3hhcfwz","msl000057","fixation","","","img/fixation.png","null","","","test","","","","","","","","","","","","","","","","","","","",""
"252","","469085","SARL_v6k3hhcfwz","msl000057","freq","","","img/green_2bandit_a2.png","70","","70","test","1","","","square","circle","130","125","8","6","0.992","","","","","","","","","",""
"null","","469639","SARL_v6k3hhcfwz","msl000057","freq_resp","","","img/green_2bandit_a.png","70","img/green_2bandit_a.png","70","test","","","","","","","","","6","","","","","","","","","","",""
"null","","469795","SARL_v6k3hhcfwz","msl000057","fixation","","","img/fixation.png","null","","","test","","","","","","","","","","","","","","","","","","","",""
"294","","470094","SARL_v6k3hhcfwz","msl000057","freq","","","img/green_2bandit_a2.png","70","","70","test","1","","","square","circle","131","126","9","6","0.9920634920634921","","","","","","","","","",""
"null","","470606","SARL_v6k3hhcfwz","msl000057","freq_resp","","","img/green_2bandit_a.png","70","img/green_2bandit_a.png","70","test","","","","","","","","","6","","","","","","","","","","",""
"null","","470762","SARL_v6k3hhcfwz","msl000057","fixation","","","img/fixation.png","null","","","test","","","","","","","","","","","","","","","","","","","",""
"262","","471028","SARL_v6k3hhcfwz","msl000057","freq","","","img/green_2bandit_a2.png","70","","70","test","1","","","square","circle","132","127","10","6","0.9921259842519685","","","","","","","","","",""
"null","","471572","SARL_v6k3hhcfwz","msl000057","freq_resp","","","img/green_2bandit_a.png","70","img/green_2bandit_a.png","70","test","","","","","","","","","6","","","","","","","","","","",""
"null","","471729","SARL_v6k3hhcfwz","msl000057","fixation","","","img/fixation.png","null","","","test","","","","","","","","","","","","","","","","","","","",""
"294","","472028","SARL_v6k3hhcfwz","msl000057","freq","","","img/green_2bandit_a2.png","70","","70","test","1","","","square","circle","133","128","11","6","0.9921875","","","","","","","","","",""
"null","","472540","SARL_v6k3hhcfwz","msl000057","freq_resp","","","img/green_2bandit_a.png","70","img/green_2bandit_a.png","70","test","","","","","","","","","6","","","","","","","","","","",""
"null","","472696","SARL_v6k3hhcfwz","msl000057","fixation","","","img/fixation.png","null","","","test","","","","","","","","","","","","","","","","","","","",""
"280","","472981","SARL_v6k3hhcfwz","msl000057","freq","","","img/green_2bandit_a2.png","70","","70","test","1","","","square","circle","134","129","12","6","0.9922480620155039","","","","","","","","","",""
"null","","473506","SARL_v6k3hhcfwz","msl000057","freq_resp","","","img/green_2bandit_a.png","70","img/green_2bandit_a.png","70","test","","","","","","","","","6","","","","","","","","","","",""
"null","","473661","SARL_v6k3hhcfwz","msl000057","fixation","","","img/fixation.png","null","","","test","","","","","","","","","","","","","","","","","","","",""
"404","","474069","SARL_v6k3hhcfwz","msl000057","infreq","","","img/orange_2bandit_a2.png","68","","68","test","1","","","square","circle","135","130","13","6","0.9923076923076923","","","","","","","","","",""
"null","","474471","SARL_v6k3hhcfwz","msl000057","infreq_resp","","","img/orange_2bandit_a.png","68","img/orange_2bandit_a.png","68","test","","","","","","","","","6","","","","","","","","","","",""
"null","","474626","SARL_v6k3hhcfwz","msl000057","fixation","","","img/fixation.png","null","","","test","","","","","","","","","","","","","","","","","","","",""
"295","","474927","SARL_v6k3hhcfwz","msl000057","freq","","","img/green_2bandit_a2.png","70","","70","test","1","","","square","circle","136","131","14","6","0.9923664122137404","","","","","","","","","",""
"null","","475439","SARL_v6k3hhcfwz","msl000057","freq_resp","","","img/green_2bandit_a.png","70","img/green_2bandit_a.png","70","test","","","","","","","","","6","","","","","","","","","","",""
"null","","475592","SARL_v6k3hhcfwz","msl000057","fixation","","","img/fixation.png","null","","","test","","","","","","","","","","","","","","","","","","","",""
"258","","475856","SARL_v6k3hhcfwz","msl000057","freq","","","img/green_2bandit_a2.png","70","","70","test","1","","","square","circle","137","132","15","6","0.9924242424242424","","","","","","","","","",""
"null","","476405","SARL_v6k3hhcfwz","msl000057","freq_resp","","","img/green_2bandit_a.png","70","img/green_2bandit_a.png","70","test","","","","","","","","","6","","","","","","","","","","",""
"null","","476560","SARL_v6k3hhcfwz","msl000057","fixation","","","img/fixation.png","null","","","test","","","","","","","","","","","","","","","","","","","",""
"213","","476778","SARL_v6k3hhcfwz","msl000057","freq","","","img/green_2bandit_a2.png","70","","70","test","1","","","square","circle","138","133","16","6","0.9924812030075187","","","","","","","","","",""
"null","","477373","SARL_v6k3hhcfwz","msl000057","freq_resp","","","img/green_2bandit_a.png","70","img/green_2bandit_a.png","70","test","","","","","","","","","6","","","","","","","","","","",""
"null","","477529","SARL_v6k3hhcfwz","msl000057","fixation","","","img/fixation.png","null","","","test","","","","","","","","","","","","","","","","","","","",""
"254","","477787","SARL_v6k3hhcfwz","msl000057","freq","","","img/green_2bandit_a2.png","70","","70","test","1","","","square","circle","139","134","17","6","0.9925373134328358","","","","","","","","","",""
"null","","478339","SARL_v6k3hhcfwz","msl000057","freq_resp","","","img/green_2bandit_a.png","70","img/green_2bandit_a.png","70","test","","","","","","","","","6","","","","","","","","","","",""
"null","","478495","SARL_v6k3hhcfwz","msl000057","fixation","","","img/fixation.png","null","","","test","","","","","","","","","","","","","","","","","","","",""
"221","","478722","SARL_v6k3hhcfwz","msl000057","freq","","","img/green_2bandit_a2.png","70","","70","test","1","","","square","circle","140","135","18","6","0.9925925925925926","","","","","","","","","",""
"null","","479306","SARL_v6k3hhcfwz","msl000057","freq_resp","","","img/green_2bandit_a.png","70","img/green_2bandit_a.png","70","test","","","","","","","","","6","","","","","","","","","","",""
"null","","479462","SARL_v6k3hhcfwz","msl000057","fixation","","","img/fixation.png","null","","","test","","","","","","","","","","","","","","","","","","","",""
"207","","479675","SARL_v6k3hhcfwz","msl000057","freq","","","img/green_2bandit_a2.png","70","","70","test","1","","","square","circle","141","136","19","6","0.9926470588235294","","","","","","","","","",""
"null","","480274","SARL_v6k3hhcfwz","msl000057","freq_resp","","","img/green_2bandit_a.png","70","img/green_2bandit_a.png","70","test","","","","","","","","","6","","","","","","","","","","",""
"null","","480429","SARL_v6k3hhcfwz","msl000057","fixation","","","img/fixation.png","null","","","test","","","","","","","","","","","","","","","","","","","",""
"438","","480871","SARL_v6k3hhcfwz","msl000057","infreq","","","img/orange_2bandit_a2.png","68","","68","test","1","","","square","circle","142","137","20","6","0.9927007299270073","","","","","","","","","",""
"null","","481239","SARL_v6k3hhcfwz","msl000057","infreq_resp","","","img/orange_2bandit_a.png","68","img/orange_2bandit_a.png","68","test","","","","","","","","","6","","","","","","","","","","",""
"null","","481395","SARL_v6k3hhcfwz","msl000057","fixation","","","img/fixation.png","null","","","test","","","","","","","","","","","","","","","","","","","",""
"242","","481642","SARL_v6k3hhcfwz","msl000057","freq","","","img/green_2bandit_a2.png","70","","70","test","1","","","square","circle","143","138","21","6","0.9927536231884058","","","","","","","","","",""
"null","","482207","SARL_v6k3hhcfwz","msl000057","freq_resp","","","img/green_2bandit_a.png","70","img/green_2bandit_a.png","70","test","","","","","","","","","6","","","","","","","","","","",""
"null","","482361","SARL_v6k3hhcfwz","msl000057","fixation","","","img/fixation.png","null","","","test","","","","","","","","","","","","","","","","","","","",""
"249","","482616","SARL_v6k3hhcfwz","msl000057","freq","","","img/green_2bandit_a2.png","70","","70","test","1","","","square","circle","144","139","22","6","0.9928057553956835","","","","","","","","","",""
"null","","483173","SARL_v6k3hhcfwz","msl000057","freq_resp","","","img/green_2bandit_a.png","70","img/green_2bandit_a.png","70","test","","","","","","","","","6","","","","","","","","","","",""
"null","","483329","SARL_v6k3hhcfwz","msl000057","fixation","","","img/fixation.png","null","","","test","","","","","","","","","","","","","","","","","","","",""
"210","","483544","SARL_v6k3hhcfwz","msl000057","freq","","","img/green_2bandit_a2.png","70","","70","test","1","","","square","circle","145","140","23","6","0.9928571428571429","","","","","","","","","",""
"null","","484138","SARL_v6k3hhcfwz","msl000057","freq_resp","","","img/green_2bandit_a.png","70","img/green_2bandit_a.png","70","test","","","","","","","","","6","","","","","","","","","","",""
"null","","484294","SARL_v6k3hhcfwz","msl000057","fixation","","","img/fixation.png","null","","","test","","","","","","","","","","","","","","","","","","","",""
"267","","484565","SARL_v6k3hhcfwz","msl000057","freq","","","img/green_2bandit_a2.png","70","","70","test","1","","","square","circle","146","141","24","6","0.9929078014184397","","","","","","","","","",""
"null","","485103","SARL_v6k3hhcfwz","msl000057","freq_resp","","","img/green_2bandit_a.png","70","img/green_2bandit_a.png","70","test","","","","","","","","","6","","","","","","","","","","",""
"null","","485258","SARL_v6k3hhcfwz","msl000057","fixation","","","img/fixation.png","null","","","test","","","","","","","","","","","","","","","","","","","",""
"293","","485557","SARL_v6k3hhcfwz","msl000057","freq","","","img/green_2bandit_a2.png","70","","70","test","1","","","square","circle","147","142","25","6","0.9929577464788732","","","","","","","","","",""
"null","","486070","SARL_v6k3hhcfwz","msl000057","freq_resp","","","img/green_2bandit_a.png","70","img/green_2bandit_a.png","70","test","","","","","","","","","6","","","","","","","","","","",""
"null","","486225","SARL_v6k3hhcfwz","msl000057","fixation","","","img/fixation.png","null","","","test","","","","","","","","","","","","","","","","","","","",""
"267","","486497","SARL_v6k3hhcfwz","msl000057","freq","","","img/green_2bandit_a2.png","70","","70","test","1","","","square","circle","148","143","26","6","0.993006993006993","","","","","","","","","",""
"null","","487035","SARL_v6k3hhcfwz","msl000057","freq_resp","","","img/green_2bandit_a.png","70","img/green_2bandit_a.png","70","test","","","","","","","","","6","","","","","","","","","","",""
"null","","487191","SARL_v6k3hhcfwz","msl000057","fixation","","","img/fixation.png","null","","","test","","","","","","","","","","","","","","","","","","","",""
"301","","487497","SARL_v6k3hhcfwz","msl000057","freq","","","img/green_2bandit_a2.png","70","","70","test","1","","","square","circle","149","144","27","6","0.9930555555555556","","","","","","","","","",""
"null","","488002","SARL_v6k3hhcfwz","msl000057","freq_resp","","","img/green_2bandit_a.png","70","img/green_2bandit_a.png","70","test","","","","","","","","","6","","","","","","","","","","",""
"null","","488159","SARL_v6k3hhcfwz","msl000057","fixation","","","img/fixation.png","null","","","test","","","","","","","","","","","","","","","","","","","",""
"411","","488574","SARL_v6k3hhcfwz","msl000057","infreq","","","img/orange_2bandit_a2.png","68","","68","test","1","","","square","circle","150","145","28","6","0.993103448275862","","","","","","","","","",""
"null","","488969","SARL_v6k3hhcfwz","msl000057","infreq_resp","","","img/orange_2bandit_a.png","68","img/orange_2bandit_a.png","68","test","","","","","","","","","6","","","","","","","","","","",""
"null","","489126","SARL_v6k3hhcfwz","msl000057","fixation","","","img/fixation.png","null","","","test","","","","","","","","","","","","","","","","","","","",""
"333","","489464","SARL_v6k3hhcfwz","msl000057","freq","","","img/green_2bandit_a2.png","70","","70","test","1","","","square","circle","151","146","29","6","0.9931506849315068","","","","","","","","","",""
"null","","489937","SARL_v6k3hhcfwz","msl000057","freq_resp","","","img/green_2bandit_a.png","70","img/green_2bandit_a.png","70","test","","","","","","","","","6","","","","","","","","","","",""
"null","","490094","SARL_v6k3hhcfwz","msl000057","fixation","","","img/fixation.png","null","","","test","","","","","","","","","","","","","","","","","","","",""
