"rt","responses","time_elapsed","subject","demoID","trialType","rlType","attType","stimulus","key_press","stim","corrresp","phase","corr","pracCounter","reward","bandOne","bandTwo","trialNum","attentionNum","attentionRunNum","blockNum","performance","bandChosen","circleVal","squareVal","coin","bandOneVal","bandTwoVal","pReward","shapeChosen","rlNum","badFlag"
"876440","{""Q0"":""msl000122""}","876466","SARL_v6vxrt8tgj","msl000122","","","","","","","","","","","","","","","","","","","","","","","","","","","",""
"32272","","908745","SARL_v6vxrt8tgj","msl000122","","","","","","","","","","","","","","","","","","","","","","","","","","","",""
"","","911539","SARL_v6vxrt8tgj","msl000122","fullscreen","fullscreen","fullscreen","","","","","","","","","","","","","","","","","","","","","","","","",""
"70075","","981618","SARL_v6vxrt8tgj","msl000122","","","","","","","","","","","","","","","","","","","","","","","","","","","",""
"null","","982423","SARL_v6vxrt8tgj","msl000122","freqPrac","","","img/green_2bandit_b2.png","null","img/green_2bandit_b2.png","70","prac","0","1","","","","","","","","","","","","","","","","","",""
"null","","983430","SARL_v6vxrt8tgj","msl000122","feedback","","","img/tooSlow.png","null","","na","prac","","","","","","","","","","","","","","","","","","","",""
"null","","983585","SARL_v6vxrt8tgj","msl000122","fixation","","","img/fixation.png","null","","","prac","","","","","","","","","","","","","","","","","","","",""
"792","","984382","SARL_v6vxrt8tgj","msl000122","infreqPrac","","","img/orange_2bandit_b2.png","70","img/orange_2bandit_b2.png","68","prac","0","2","","","","","","","","","","","","","","","","","",""
"792","","984397","SARL_v6vxrt8tgj","msl000122","infreqPrac_resp","","","img/orange_2bandit_b.png","70","img/orange_2bandit_b.png","68","prac","","","","","","","","","","","","","","","","","","","",""
"null","","985402","SARL_v6vxrt8tgj","msl000122","feedback","","","img/wrongKey.png","null","","na","prac","","","","","","","","","","","","","","","","","","","",""
"null","","985558","SARL_v6vxrt8tgj","msl000122","fixation","","","img/fixation.png","null","","","prac","","","","","","","","","","","","","","","","","","","",""
"null","","986364","SARL_v6vxrt8tgj","msl000122","freqPrac","","","img/green_2bandit_b2.png","null","img/green_2bandit_b2.png","70","prac","0","3","","","","","","","","","","","","","","","","","",""
"null","","987370","SARL_v6vxrt8tgj","msl000122","feedback","","","img/tooSlow.png","null","","na","prac","","","","","","","","","","","","","","","","","","","",""
"null","","987526","SARL_v6vxrt8tgj","msl000122","fixation","","","img/fixation.png","null","","","prac","","","","","","","","","","","","","","","","","","","",""
"644","","988175","SARL_v6vxrt8tgj","msl000122","infreqPrac","","","img/orange_2bandit_b2.png","70","img/orange_2bandit_b2.png","68","prac","0","4","","","","","","","","","","","","","","","","","",""
"644","","988336","SARL_v6vxrt8tgj","msl000122","infreqPrac_resp","","","img/orange_2bandit_b.png","70","img/orange_2bandit_b.png","68","prac","","","","","","","","","","","","","","","","","","","",""
"null","","989341","SARL_v6vxrt8tgj","msl000122","feedback","","","img/wrongKey.png","null","","na","prac","","","","","","","","","","","","","","","","","","","",""
"null","","989497","SARL_v6vxrt8tgj","msl000122","fixation","","","img/fixation.png","null","","","prac","","","","","","","","","","","","","","","","","","","",""
"780","","990282","SARL_v6vxrt8tgj","msl000122","infreqPrac","","","img/orange_2bandit_b2.png","68","img/orange_2bandit_b2.png","68","prac","1","4","","","","","","","","","","","","","","","","","",""
"780","","990307","SARL_v6vxrt8tgj","msl000122","infreqPrac_resp","","","img/orange_2bandit_b.png","68","img/orange_2bandit_b.png","68","prac","","","","","","","","","","","","","","","","","","","",""
"null","","990462","SARL_v6vxrt8tgj","msl000122","fixation","","","img/fixation.png","null","","","prac","","","","","","","","","","","","","","","","","","","",""
"520","","990986","SARL_v6vxrt8tgj","msl000122","infreqPrac","","","img/orange_2bandit_b2.png","68","img/orange_2bandit_b2.png","68","prac","1","4","","","","","","","","","","","","","","","","","",""
"520","","991272","SARL_v6vxrt8tgj","msl000122","infreqPrac_resp","","","img/orange_2bandit_b.png","68","img/orange_2bandit_b.png","68","prac","","","","","","","","","","","","","","","","","","","",""
"null","","991427","SARL_v6vxrt8tgj","msl000122","fixation","","","img/fixation.png","null","","","prac","","","","","","","","","","","","","","","","","","","",""
"514","","991946","SARL_v6vxrt8tgj","msl000122","freqPrac","","","img/green_2bandit_b2.png","70","img/green_2bandit_b2.png","70","prac","1","4","","","","","","","","","","","","","","","","","",""
"514","","992238","SARL_v6vxrt8tgj","msl000122","freqPrac_resp","","","img/green_2bandit_b.png","70","img/green_2bandit_b.png","70","prac","","","","","","","","","","","","","","","","","","","",""
"null","","992394","SARL_v6vxrt8tgj","msl000122","fixation","","","img/fixation.png","null","","","prac","","","","","","","","","","","","","","","","","","","",""
"465","","992864","SARL_v6vxrt8tgj","msl000122","infreqPrac","","","img/orange_2bandit_b2.png","68","img/orange_2bandit_b2.png","68","prac","1","4","","","","","","","","","","","","","","","","","",""
"465","","993204","SARL_v6vxrt8tgj","msl000122","infreqPrac_resp","","","img/orange_2bandit_b.png","68","img/orange_2bandit_b.png","68","prac","","","","","","","","","","","","","","","","","","","",""
"null","","993359","SARL_v6vxrt8tgj","msl000122","fixation","","","img/fixation.png","null","","","prac","","","","","","","","","","","","","","","","","","","",""
"284","","993647","SARL_v6vxrt8tgj","msl000122","freqPrac","","","img/green_2bandit_b2.png","70","img/green_2bandit_b2.png","70","prac","1","4","","","","","","","","","","","","","","","","","",""
"284","","994168","SARL_v6vxrt8tgj","msl000122","freqPrac_resp","","","img/green_2bandit_b.png","70","img/green_2bandit_b.png","70","prac","","","","","","","","","","","","","","","","","","","",""
"null","","994324","SARL_v6vxrt8tgj","msl000122","fixation","","","img/fixation.png","null","","","prac","","","","","","","","","","","","","","","","","","","",""
"346","","994675","SARL_v6vxrt8tgj","msl000122","freqPrac","","","img/green_2bandit_b2.png","68","img/green_2bandit_b2.png","70","prac","0","5","","","","","","","","","","","","","","","","","",""
"346","","995135","SARL_v6vxrt8tgj","msl000122","freqPrac_resp","","","img/green_2bandit_b.png","68","img/green_2bandit_b.png","70","prac","","","","","","","","","","","","","","","","","","","",""
"null","","996140","SARL_v6vxrt8tgj","msl000122","feedback","","","img/wrongKey.png","null","","na","prac","","","","","","","","","","","","","","","","","","","",""
"null","","996296","SARL_v6vxrt8tgj","msl000122","fixation","","","img/fixation.png","null","","","prac","","","","","","","","","","","","","","","","","","","",""
"39785","","1036086","SARL_v6vxrt8tgj","msl000122","","","","","","","","prac","","","","","","","","","","","","","","","","","","","",""
"1294","","1037385","SARL_v6vxrt8tgj","msl000122","rlPractice","","","img/black_2bandit_b2.png","75","img/black_2bandit_b2.png","","prac","","","75","","","","","","","","","","","","","","","","",""
"null","","1038141","SARL_v6vxrt8tgj","msl000122","feedback","","","img/yay_R_b.png","null","","na","prac","","","","","","","","","","","","","","","","","","","",""
"null","","1038297","SARL_v6vxrt8tgj","msl000122","fixation","","","img/fixation.png","null","","","prac","","","","","","","","","","","","","","","","","","","",""
"675","","1038976","SARL_v6vxrt8tgj","msl000122","rlPractice","","","img/black_2bandit_b2.png","75","img/black_2bandit_b2.png","","prac","","","75","","","","","","","","","","","","","","","","",""
"null","","1039732","SARL_v6vxrt8tgj","msl000122","feedback","","","img/yay_R_b.png","null","","na","prac","","","","","","","","","","","","","","","","","","","",""
"null","","1039888","SARL_v6vxrt8tgj","msl000122","fixation","","","img/fixation.png","null","","","prac","","","","","","","","","","","","","","","","","","","",""
"674","","1040568","SARL_v6vxrt8tgj","msl000122","rlPractice","","","img/black_2bandit_b2.png","74","img/black_2bandit_b2.png","","prac","","","75","","","","","","","","","","","","","","","","",""
"null","","1041324","SARL_v6vxrt8tgj","msl000122","feedback","","","img/boo_L_b.png","null","","na","prac","","","","","","","","","","","","","","","","","","","",""
"null","","1041480","SARL_v6vxrt8tgj","msl000122","fixation","","","img/fixation.png","null","","","prac","","","","","","","","","","","","","","","","","","","",""
"684","","1042168","SARL_v6vxrt8tgj","msl000122","rlPractice","","","img/black_2bandit_b2.png","75","img/black_2bandit_b2.png","","prac","","","75","","","","","","","","","","","","","","","","",""
"null","","1042924","SARL_v6vxrt8tgj","msl000122","feedback","","","img/yay_R_b.png","null","","na","prac","","","","","","","","","","","","","","","","","","","",""
"null","","1043080","SARL_v6vxrt8tgj","msl000122","fixation","","","img/fixation.png","null","","","prac","","","","","","","","","","","","","","","","","","","",""
"646","","1043731","SARL_v6vxrt8tgj","msl000122","rlPractice","","","img/black_2bandit_b2.png","75","img/black_2bandit_b2.png","","prac","","","75","","","","","","","","","","","","","","","","",""
"null","","1044486","SARL_v6vxrt8tgj","msl000122","feedback","","","img/yay_R_b.png","null","","na","prac","","","","","","","","","","","","","","","","","","","",""
"null","","1044641","SARL_v6vxrt8tgj","msl000122","fixation","","","img/fixation.png","null","","","prac","","","","","","","","","","","","","","","","","","","",""
"723","","1045369","SARL_v6vxrt8tgj","msl000122","rlPractice","","","img/black_2bandit_b2.png","75","img/black_2bandit_b2.png","","prac","","","75","","","","","","","","","","","","","","","","",""
"null","","1046125","SARL_v6vxrt8tgj","msl000122","feedback","","","img/yay_R_b.png","null","","na","prac","","","","","","","","","","","","","","","","","","","",""
"null","","1046280","SARL_v6vxrt8tgj","msl000122","fixation","","","img/fixation.png","null","","","prac","","","","","","","","","","","","","","","","","","","",""
"567","","1046851","SARL_v6vxrt8tgj","msl000122","rlPractice","","","img/black_2bandit_b2.png","75","img/black_2bandit_b2.png","","prac","","","75","","","","","","","","","","","","","","","","",""
"null","","1047607","SARL_v6vxrt8tgj","msl000122","feedback","","","img/yay_R_b.png","null","","na","prac","","","","","","","","","","","","","","","","","","","",""
"null","","1047763","SARL_v6vxrt8tgj","msl000122","fixation","","","img/fixation.png","null","","","prac","","","","","","","","","","","","","","","","","","","",""
"12620","","1060385","SARL_v6vxrt8tgj","msl000122","","","","","","","","prac","","","","","","","","","","","","","","","","","","","",""
"null","","1061191","SARL_v6vxrt8tgj","msl000122","mixAttFreqPrac","","","img/green_2bandit_b2.png","null","img/green_2bandit_b2.png","70","prac","","","","","","","","","","","","","","","","","","","",""
"82","","1061347","SARL_v6vxrt8tgj","msl000122","fixation","","","img/fixation.png","68","","","prac","","","","","","","","","","","","","","","","","","","",""
"null","","1062153","SARL_v6vxrt8tgj","msl000122","mixAttInfreqPrac","","","img/orange_2bandit_b2.png","null","img/orange_2bandit_b2.png","68","prac","","","","","","","","","","","","","","","","","","","",""
"87","","1062311","SARL_v6vxrt8tgj","msl000122","fixation","","","img/fixation.png","68","","","prac","","","","","","","","","","","","","","","","","","","",""
"699","","1063012","SARL_v6vxrt8tgj","msl000122","mixAttInfreqPrac","","","img/orange_2bandit_b2.png","68","img/orange_2bandit_b2.png","68","prac","","","","","","","","","","","","","","","","","","","",""
"699","","1063118","SARL_v6vxrt8tgj","msl000122","infreqPrac_resp","","","img/orange_2bandit_b.png","68","img/green_2bandit_b.png","68","prac","","","","","","","","","","","","","","","","","","","",""
"null","","1063273","SARL_v6vxrt8tgj","msl000122","fixation","","","img/fixation.png","null","","","prac","","","","","","","","","","","","","","","","","","","",""
"573","","1063852","SARL_v6vxrt8tgj","msl000122","mixAttInfreqPrac","","","img/orange_2bandit_b2.png","68","img/orange_2bandit_b2.png","68","prac","","","","","","","","","","","","","","","","","","","",""
"573","","1064084","SARL_v6vxrt8tgj","msl000122","infreqPrac_resp","","","img/orange_2bandit_b.png","68","img/green_2bandit_b.png","68","prac","","","","","","","","","","","","","","","","","","","",""
"null","","1064239","SARL_v6vxrt8tgj","msl000122","fixation","","","img/fixation.png","null","","","prac","","","","","","","","","","","","","","","","","","","",""
"547","","1064790","SARL_v6vxrt8tgj","msl000122","mixAttFreqPrac","","","img/green_2bandit_b2.png","70","img/green_2bandit_b2.png","70","prac","","","","","","","","","","","","","","","","","","","",""
"547","","1065049","SARL_v6vxrt8tgj","msl000122","freqPrac_resp","","","img/green_2bandit_b.png","70","img/green_2bandit_b.png","70","prac","","","","","","","","","","","","","","","","","","","",""
"null","","1065204","SARL_v6vxrt8tgj","msl000122","fixation","","","img/fixation.png","null","","","prac","","","","","","","","","","","","","","","","","","","",""
"1013","","1066222","SARL_v6vxrt8tgj","msl000122","mixRLPractice","","","img/black_2bandit_b2.png","75","img/black_2bandit_b2.png","","prac","","","","","","","","","","","","","","","","","","","",""
"null","","1066977","SARL_v6vxrt8tgj","msl000122","feedback","","","img/boo_R_b.png","null","","na","prac","","","","","","","","","","","","","","","","","","","",""
"null","","1067782","SARL_v6vxrt8tgj","msl000122","mixAttFreqPrac","","","img/green_2bandit_b2.png","null","img/green_2bandit_b2.png","70","prac","","","","","","","","","","","","","","","","","","","",""
"null","","1067939","SARL_v6vxrt8tgj","msl000122","fixation","","","img/fixation.png","null","","","prac","","","","","","","","","","","","","","","","","","","",""
"null","","1068746","SARL_v6vxrt8tgj","msl000122","mixAttInfreqPrac","","","img/orange_2bandit_b2.png","null","img/orange_2bandit_b2.png","68","prac","","","","","","","","","","","","","","","","","","","",""
"null","","1068902","SARL_v6vxrt8tgj","msl000122","fixation","","","img/fixation.png","null","","","prac","","","","","","","","","","","","","","","","","","","",""
"471","","1069377","SARL_v6vxrt8tgj","msl000122","mixAttFreqPrac","","","img/green_2bandit_b2.png","68","img/green_2bandit_b2.png","70","prac","","","","","","","","","","","","","","","","","","","",""
"471","","1069712","SARL_v6vxrt8tgj","msl000122","freqPrac_resp","","","img/green_2bandit_b.png","68","img/green_2bandit_b.png","70","prac","","","","","","","","","","","","","","","","","","","",""
"null","","1069868","SARL_v6vxrt8tgj","msl000122","fixation","","","img/fixation.png","null","","","prac","","","","","","","","","","","","","","","","","","","",""
"508","","1070381","SARL_v6vxrt8tgj","msl000122","mixAttFreqPrac","","","img/green_2bandit_b2.png","68","img/green_2bandit_b2.png","70","prac","","","","","","","","","","","","","","","","","","","",""
"508","","1070679","SARL_v6vxrt8tgj","msl000122","freqPrac_resp","","","img/green_2bandit_b.png","68","img/green_2bandit_b.png","70","prac","","","","","","","","","","","","","","","","","","","",""
"null","","1070835","SARL_v6vxrt8tgj","msl000122","fixation","","","img/fixation.png","null","","","prac","","","","","","","","","","","","","","","","","","","",""
"480","","1071320","SARL_v6vxrt8tgj","msl000122","mixAttInfreqPrac","","","img/orange_2bandit_b2.png","70","img/orange_2bandit_b2.png","68","prac","","","","","","","","","","","","","","","","","","","",""
"480","","1071645","SARL_v6vxrt8tgj","msl000122","infreqPrac_resp","","","img/orange_2bandit_b.png","70","img/green_2bandit_b.png","68","prac","","","","","","","","","","","","","","","","","","","",""
"null","","1071801","SARL_v6vxrt8tgj","msl000122","fixation","","","img/fixation.png","null","","","prac","","","","","","","","","","","","","","","","","","","",""
"1054","","1072860","SARL_v6vxrt8tgj","msl000122","mixRLPractice","","","img/black_2bandit_b2.png","75","img/black_2bandit_b2.png","","prac","","","","","","","","","","","","","","","","","","","",""
"null","","1073615","SARL_v6vxrt8tgj","msl000122","feedback","","","img/yay_R_b.png","null","","na","prac","","","","","","","","","","","","","","","","","","","",""
"32272","","1105891","SARL_v6vxrt8tgj","msl000122","","","","","","","","prac","","","","","","","","","","","","","","","","","","","",""
"591","","1106486","SARL_v6vxrt8tgj","msl000122","freq","","","img/green_2bandit_b2.png","70","","70","test","1","","","circle","square","1","1","1","1","1","","","","","","","","","",""
"null","","1106701","SARL_v6vxrt8tgj","msl000122","freq_resp","","","img/green_2bandit_b.png","70","img/green_2bandit_b.png","70","test","","","","","","","","","1","","","","","","","","","","",""
"null","","1106857","SARL_v6vxrt8tgj","msl000122","fixation","","","img/fixation.png","null","","","test","","","","","","","","","","","","","","","","","","","",""
"485","","1107347","SARL_v6vxrt8tgj","msl000122","freq","","","img/green_2bandit_b2.png","70","","70","test","1","","","circle","square","2","2","2","1","1","","","","","","","","","",""
"null","","1107668","SARL_v6vxrt8tgj","msl000122","freq_resp","","","img/green_2bandit_b.png","70","img/green_2bandit_b.png","70","test","","","","","","","","","1","","","","","","","","","","",""
"null","","1107823","SARL_v6vxrt8tgj","msl000122","fixation","","","img/fixation.png","null","","","test","","","","","","","","","","","","","","","","","","","",""
"390","","1108218","SARL_v6vxrt8tgj","msl000122","freq","","","img/green_2bandit_b2.png","70","","70","test","1","","","circle","square","3","3","3","1","1","","","","","","","","","",""
"null","","1108635","SARL_v6vxrt8tgj","msl000122","freq_resp","","","img/green_2bandit_b.png","70","img/green_2bandit_b.png","70","test","","","","","","","","","1","","","","","","","","","","",""
"null","","1108790","SARL_v6vxrt8tgj","msl000122","fixation","","","img/fixation.png","null","","","test","","","","","","","","","","","","","","","","","","","",""
"373","","1109168","SARL_v6vxrt8tgj","msl000122","freq","","","img/green_2bandit_b2.png","70","","70","test","1","","","circle","square","4","4","4","1","1","","","","","","","","","",""
"null","","1109601","SARL_v6vxrt8tgj","msl000122","freq_resp","","","img/green_2bandit_b.png","70","img/green_2bandit_b.png","70","test","","","","","","","","","1","","","","","","","","","","",""
"null","","1109756","SARL_v6vxrt8tgj","msl000122","fixation","","","img/fixation.png","null","","","test","","","","","","","","","","","","","","","","","","","",""
"339","","1110100","SARL_v6vxrt8tgj","msl000122","freq","","","img/green_2bandit_b2.png","70","","70","test","1","","","circle","square","5","5","5","1","1","","","","","","","","","",""
"null","","1110566","SARL_v6vxrt8tgj","msl000122","freq_resp","","","img/green_2bandit_b.png","70","img/green_2bandit_b.png","70","test","","","","","","","","","1","","","","","","","","","","",""
"null","","1110721","SARL_v6vxrt8tgj","msl000122","fixation","","","img/fixation.png","null","","","test","","","","","","","","","","","","","","","","","","","",""
"337","","1111064","SARL_v6vxrt8tgj","msl000122","freq","","","img/green_2bandit_b2.png","70","","70","test","1","","","circle","square","6","6","6","1","1","","","","","","","","","",""
"null","","1111532","SARL_v6vxrt8tgj","msl000122","freq_resp","","","img/green_2bandit_b.png","70","img/green_2bandit_b.png","70","test","","","","","","","","","1","","","","","","","","","","",""
"null","","1111687","SARL_v6vxrt8tgj","msl000122","fixation","","","img/fixation.png","null","","","test","","","","","","","","","","","","","","","","","","","",""
"302","","1111993","SARL_v6vxrt8tgj","msl000122","freq","","","img/green_2bandit_b2.png","70","","70","test","1","","","circle","square","7","7","7","1","1","","","","","","","","","",""
"null","","1112497","SARL_v6vxrt8tgj","msl000122","freq_resp","","","img/green_2bandit_b.png","70","img/green_2bandit_b.png","70","test","","","","","","","","","1","","","","","","","","","","",""
"null","","1112653","SARL_v6vxrt8tgj","msl000122","fixation","","","img/fixation.png","null","","","test","","","","","","","","","","","","","","","","","","","",""
"313","","1112970","SARL_v6vxrt8tgj","msl000122","freq","","","img/green_2bandit_b2.png","70","","70","test","1","","","circle","square","8","8","8","1","1","","","","","","","","","",""
"null","","1113462","SARL_v6vxrt8tgj","msl000122","freq_resp","","","img/green_2bandit_b.png","70","img/green_2bandit_b.png","70","test","","","","","","","","","1","","","","","","","","","","",""
"null","","1113619","SARL_v6vxrt8tgj","msl000122","fixation","","","img/fixation.png","null","","","test","","","","","","","","","","","","","","","","","","","",""
"306","","1113931","SARL_v6vxrt8tgj","msl000122","freq","","","img/green_2bandit_b2.png","70","","70","test","1","","","circle","square","9","9","9","1","1","","","","","","","","","",""
"null","","1114431","SARL_v6vxrt8tgj","msl000122","freq_resp","","","img/green_2bandit_b.png","70","img/green_2bandit_b.png","70","test","","","","","","","","","1","","","","","","","","","","",""
"null","","1114587","SARL_v6vxrt8tgj","msl000122","fixation","","","img/fixation.png","null","","","test","","","","","","","","","","","","","","","","","","","",""
"291","","1114883","SARL_v6vxrt8tgj","msl000122","freq","","","img/green_2bandit_b2.png","70","","70","test","1","","","circle","square","10","10","10","1","1","","","","","","","","","",""
"null","","1115398","SARL_v6vxrt8tgj","msl000122","freq_resp","","","img/green_2bandit_b.png","70","img/green_2bandit_b.png","70","test","","","","","","","","","1","","","","","","","","","","",""
"null","","1115555","SARL_v6vxrt8tgj","msl000122","fixation","","","img/fixation.png","null","","","test","","","","","","","","","","","","","","","","","","","",""
"297","","1115856","SARL_v6vxrt8tgj","msl000122","freq","","","img/green_2bandit_b2.png","70","","70","test","1","","","circle","square","11","11","11","1","1","","","","","","","","","",""
"null","","1116365","SARL_v6vxrt8tgj","msl000122","freq_resp","","","img/green_2bandit_b.png","70","img/green_2bandit_b.png","70","test","","","","","","","","","1","","","","","","","","","","",""
"null","","1116520","SARL_v6vxrt8tgj","msl000122","fixation","","","img/fixation.png","null","","","test","","","","","","","","","","","","","","","","","","","",""
"300","","1116824","SARL_v6vxrt8tgj","msl000122","freq","","","img/green_2bandit_b2.png","70","","70","test","1","","","circle","square","12","12","12","1","1","","","","","","","","","",""
"null","","1117330","SARL_v6vxrt8tgj","msl000122","freq_resp","","","img/green_2bandit_b.png","70","img/green_2bandit_b.png","70","test","","","","","","","","","1","","","","","","","","","","",""
"null","","1117485","SARL_v6vxrt8tgj","msl000122","fixation","","","img/fixation.png","null","","","test","","","","","","","","","","","","","","","","","","","",""
"263","","1117753","SARL_v6vxrt8tgj","msl000122","freq","","","img/green_2bandit_b2.png","70","","70","test","1","","","circle","square","13","13","13","1","1","","","","","","","","","",""
"null","","1118297","SARL_v6vxrt8tgj","msl000122","freq_resp","","","img/green_2bandit_b.png","70","img/green_2bandit_b.png","70","test","","","","","","","","","1","","","","","","","","","","",""
"null","","1118452","SARL_v6vxrt8tgj","msl000122","fixation","","","img/fixation.png","null","","","test","","","","","","","","","","","","","","","","","","","",""
"270","","1118728","SARL_v6vxrt8tgj","msl000122","freq","","","img/green_2bandit_b2.png","70","","70","test","1","","","circle","square","14","14","14","1","1","","","","","","","","","",""
"null","","1119263","SARL_v6vxrt8tgj","msl000122","freq_resp","","","img/green_2bandit_b.png","70","img/green_2bandit_b.png","70","test","","","","","","","","","1","","","","","","","","","","",""
"null","","1119420","SARL_v6vxrt8tgj","msl000122","fixation","","","img/fixation.png","null","","","test","","","","","","","","","","","","","","","","","","","",""
"287","","1119711","SARL_v6vxrt8tgj","msl000122","infreq","","","img/orange_2bandit_b2.png","70","","68","test","0","","","circle","square","15","15","15","1","0.9333333333333333","","","","","","","","","",""
"null","","1120231","SARL_v6vxrt8tgj","msl000122","infreq_resp","","","img/orange_2bandit_b.png","70","img/orange_2bandit_b.png","68","test","","","","","","","","","1","","","","","","","","","","",""
"null","","1120387","SARL_v6vxrt8tgj","msl000122","fixation","","","img/fixation.png","null","","","test","","","","","","","","","","","","","","","","","","","",""
"549","","1120941","SARL_v6vxrt8tgj","msl000122","freq","","","img/green_2bandit_b2.png","70","","70","test","1","","","circle","square","16","16","16","1","0.9375","","","","","","","","","",""
"null","","1121198","SARL_v6vxrt8tgj","msl000122","freq_resp","","","img/green_2bandit_b.png","70","img/green_2bandit_b.png","70","test","","","","","","","","","1","","","","","","","","","","",""
"null","","1121354","SARL_v6vxrt8tgj","msl000122","fixation","","","img/fixation.png","null","","","test","","","","","","","","","","","","","","","","","","","",""
"579","","1121938","SARL_v6vxrt8tgj","msl000122","infreq","","","img/orange_2bandit_b2.png","68","","68","test","1","","","circle","square","17","17","17","1","0.9411764705882353","","","","","","","","","",""
"null","","1122164","SARL_v6vxrt8tgj","msl000122","infreq_resp","","","img/orange_2bandit_b.png","68","img/orange_2bandit_b.png","68","test","","","","","","","","","1","","","","","","","","","","",""
"null","","1122320","SARL_v6vxrt8tgj","msl000122","fixation","","","img/fixation.png","null","","","test","","","","","","","","","","","","","","","","","","","",""
"496","","1122820","SARL_v6vxrt8tgj","msl000122","freq","","","img/green_2bandit_b2.png","70","","70","test","1","","","circle","square","18","18","18","1","0.9444444444444444","","","","","","","","","",""
"null","","1123129","SARL_v6vxrt8tgj","msl000122","freq_resp","","","img/green_2bandit_b.png","70","img/green_2bandit_b.png","70","test","","","","","","","","","1","","","","","","","","","","",""
"null","","1123284","SARL_v6vxrt8tgj","msl000122","fixation","","","img/fixation.png","null","","","test","","","","","","","","","","","","","","","","","","","",""
"469","","1123757","SARL_v6vxrt8tgj","msl000122","freq","","","img/green_2bandit_b2.png","70","","70","test","1","","","circle","square","19","19","19","1","0.9473684210526315","","","","","","","","","",""
"null","","1124094","SARL_v6vxrt8tgj","msl000122","freq_resp","","","img/green_2bandit_b.png","70","img/green_2bandit_b.png","70","test","","","","","","","","","1","","","","","","","","","","",""
"null","","1124250","SARL_v6vxrt8tgj","msl000122","fixation","","","img/fixation.png","null","","","test","","","","","","","","","","","","","","","","","","","",""
"428","","1124683","SARL_v6vxrt8tgj","msl000122","freq","","","img/green_2bandit_b2.png","70","","70","test","1","","","circle","square","20","20","20","1","0.95","","","","","","","","","",""
"null","","1125060","SARL_v6vxrt8tgj","msl000122","freq_resp","","","img/green_2bandit_b.png","70","img/green_2bandit_b.png","70","test","","","","","","","","","1","","","","","","","","","","",""
"null","","1125216","SARL_v6vxrt8tgj","msl000122","fixation","","","img/fixation.png","null","","","test","","","","","","","","","","","","","","","","","","","",""
"387","","1125607","SARL_v6vxrt8tgj","msl000122","freq","","","img/green_2bandit_b2.png","70","","70","test","1","","","circle","square","21","21","21","1","0.9523809523809523","","","","","","","","","",""
"null","","1126026","SARL_v6vxrt8tgj","msl000122","freq_resp","","","img/green_2bandit_b.png","70","img/green_2bandit_b.png","70","test","","","","","","","","","1","","","","","","","","","","",""
"null","","1126181","SARL_v6vxrt8tgj","msl000122","fixation","","","img/fixation.png","null","","","test","","","","","","","","","","","","","","","","","","","",""
"686","","1126872","SARL_v6vxrt8tgj","msl000122","rl","","","img/black_2bandit_b2.png","75","","0","test","","","0","circle","square","22","","0","1","","75","0.8","0.2","0.7991123560909463","0.8","0.2","0.2","square","1","0"
"null","","1127628","SARL_v6vxrt8tgj","msl000122","feedback","","","img/boo_R_b.png","null","","na","test","","","","","","","","","1","","75","0.8","0.2","","","","0.2","","1",""
"468","","1128101","SARL_v6vxrt8tgj","msl000122","freq","","","img/green_2bandit_b2.png","70","","70","test","1","","","circle","square","23","22","1","2","0.9545454545454546","","","","","","","","","",""
"null","","1128439","SARL_v6vxrt8tgj","msl000122","freq_resp","","","img/green_2bandit_b.png","70","img/green_2bandit_b.png","70","test","","","","","","","","","2","","","","","","","","","","",""
"null","","1128596","SARL_v6vxrt8tgj","msl000122","fixation","","","img/fixation.png","null","","","test","","","","","","","","","","","","","","","","","","","",""
"358","","1128958","SARL_v6vxrt8tgj","msl000122","freq","","","img/green_2bandit_b2.png","70","","70","test","1","","","circle","square","24","23","2","2","0.9565217391304348","","","","","","","","","",""
"null","","1129406","SARL_v6vxrt8tgj","msl000122","freq_resp","","","img/green_2bandit_b.png","70","img/green_2bandit_b.png","70","test","","","","","","","","","2","","","","","","","","","","",""
"null","","1129561","SARL_v6vxrt8tgj","msl000122","fixation","","","img/fixation.png","null","","","test","","","","","","","","","","","","","","","","","","","",""
"317","","1129883","SARL_v6vxrt8tgj","msl000122","freq","","","img/green_2bandit_b2.png","70","","70","test","1","","","circle","square","25","24","3","2","0.9583333333333334","","","","","","","","","",""
"null","","1130372","SARL_v6vxrt8tgj","msl000122","freq_resp","","","img/green_2bandit_b.png","70","img/green_2bandit_b.png","70","test","","","","","","","","","2","","","","","","","","","","",""
"null","","1130527","SARL_v6vxrt8tgj","msl000122","fixation","","","img/fixation.png","null","","","test","","","","","","","","","","","","","","","","","","","",""
"333","","1130866","SARL_v6vxrt8tgj","msl000122","freq","","","img/green_2bandit_b2.png","70","","70","test","1","","","circle","square","26","25","4","2","0.96","","","","","","","","","",""
"null","","1131338","SARL_v6vxrt8tgj","msl000122","freq_resp","","","img/green_2bandit_b.png","70","img/green_2bandit_b.png","70","test","","","","","","","","","2","","","","","","","","","","",""
"null","","1131494","SARL_v6vxrt8tgj","msl000122","fixation","","","img/fixation.png","null","","","test","","","","","","","","","","","","","","","","","","","",""
"332","","1131831","SARL_v6vxrt8tgj","msl000122","freq","","","img/green_2bandit_b2.png","70","","70","test","1","","","circle","square","27","26","5","2","0.9615384615384616","","","","","","","","","",""
"null","","1132304","SARL_v6vxrt8tgj","msl000122","freq_resp","","","img/green_2bandit_b.png","70","img/green_2bandit_b.png","70","test","","","","","","","","","2","","","","","","","","","","",""
"null","","1132459","SARL_v6vxrt8tgj","msl000122","fixation","","","img/fixation.png","null","","","test","","","","","","","","","","","","","","","","","","","",""
"301","","1132766","SARL_v6vxrt8tgj","msl000122","freq","","","img/green_2bandit_b2.png","70","","70","test","1","","","circle","square","28","27","6","2","0.9629629629629629","","","","","","","","","",""
"null","","1133270","SARL_v6vxrt8tgj","msl000122","freq_resp","","","img/green_2bandit_b.png","70","img/green_2bandit_b.png","70","test","","","","","","","","","2","","","","","","","","","","",""
"null","","1133426","SARL_v6vxrt8tgj","msl000122","fixation","","","img/fixation.png","null","","","test","","","","","","","","","","","","","","","","","","","",""
"513","","1133943","SARL_v6vxrt8tgj","msl000122","infreq","","","img/orange_2bandit_b2.png","68","","68","test","1","","","circle","square","29","28","7","2","0.9642857142857143","","","","","","","","","",""
"null","","1134236","SARL_v6vxrt8tgj","msl000122","infreq_resp","","","img/orange_2bandit_b.png","68","img/orange_2bandit_b.png","68","test","","","","","","","","","2","","","","","","","","","","",""
"null","","1134391","SARL_v6vxrt8tgj","msl000122","fixation","","","img/fixation.png","null","","","test","","","","","","","","","","","","","","","","","","","",""
"484","","1134880","SARL_v6vxrt8tgj","msl000122","freq","","","img/green_2bandit_b2.png","70","","70","test","1","","","circle","square","30","29","8","2","0.9655172413793104","","","","","","","","","",""
"null","","1135202","SARL_v6vxrt8tgj","msl000122","freq_resp","","","img/green_2bandit_b.png","70","img/green_2bandit_b.png","70","test","","","","","","","","","2","","","","","","","","","","",""
"null","","1135358","SARL_v6vxrt8tgj","msl000122","fixation","","","img/fixation.png","null","","","test","","","","","","","","","","","","","","","","","","","",""
"386","","1135748","SARL_v6vxrt8tgj","msl000122","freq","","","img/green_2bandit_b2.png","70","","70","test","1","","","circle","square","31","30","9","2","0.9666666666666667","","","","","","","","","",""
"null","","1136167","SARL_v6vxrt8tgj","msl000122","freq_resp","","","img/green_2bandit_b.png","70","img/green_2bandit_b.png","70","test","","","","","","","","","2","","","","","","","","","","",""
"null","","1136323","SARL_v6vxrt8tgj","msl000122","fixation","","","img/fixation.png","null","","","test","","","","","","","","","","","","","","","","","","","",""
"365","","1136692","SARL_v6vxrt8tgj","msl000122","freq","","","img/green_2bandit_b2.png","70","","70","test","1","","","circle","square","32","31","10","2","0.967741935483871","","","","","","","","","",""
"null","","1137133","SARL_v6vxrt8tgj","msl000122","freq_resp","","","img/green_2bandit_b.png","70","img/green_2bandit_b.png","70","test","","","","","","","","","2","","","","","","","","","","",""
"null","","1137288","SARL_v6vxrt8tgj","msl000122","fixation","","","img/fixation.png","null","","","test","","","","","","","","","","","","","","","","","","","",""
"344","","1137637","SARL_v6vxrt8tgj","msl000122","infreq","","","img/orange_2bandit_b2.png","70","","68","test","0","","","circle","square","33","32","11","2","0.9375","","","","","","","","","",""
"null","","1138098","SARL_v6vxrt8tgj","msl000122","infreq_resp","","","img/orange_2bandit_b.png","70","img/orange_2bandit_b.png","68","test","","","","","","","","","2","","","","","","","","","","",""
"null","","1138254","SARL_v6vxrt8tgj","msl000122","fixation","","","img/fixation.png","null","","","test","","","","","","","","","","","","","","","","","","","",""
"667","","1138925","SARL_v6vxrt8tgj","msl000122","freq","","","img/green_2bandit_b2.png","70","","70","test","1","","","circle","square","34","33","12","2","0.9393939393939394","","","","","","","","","",""
"null","","1139064","SARL_v6vxrt8tgj","msl000122","freq_resp","","","img/green_2bandit_b.png","70","img/green_2bandit_b.png","70","test","","","","","","","","","2","","","","","","","","","","",""
"null","","1139219","SARL_v6vxrt8tgj","msl000122","fixation","","","img/fixation.png","null","","","test","","","","","","","","","","","","","","","","","","","",""
"453","","1139677","SARL_v6vxrt8tgj","msl000122","freq","","","img/green_2bandit_b2.png","70","","70","test","1","","","circle","square","35","34","13","2","0.9411764705882353","","","","","","","","","",""
"null","","1140030","SARL_v6vxrt8tgj","msl000122","freq_resp","","","img/green_2bandit_b.png","70","img/green_2bandit_b.png","70","test","","","","","","","","","2","","","","","","","","","","",""
"null","","1140186","SARL_v6vxrt8tgj","msl000122","fixation","","","img/fixation.png","null","","","test","","","","","","","","","","","","","","","","","","","",""
"374","","1140566","SARL_v6vxrt8tgj","msl000122","freq","","","img/green_2bandit_b2.png","70","","70","test","1","","","circle","square","36","35","14","2","0.9428571428571428","","","","","","","","","",""
"null","","1140998","SARL_v6vxrt8tgj","msl000122","freq_resp","","","img/green_2bandit_b.png","70","img/green_2bandit_b.png","70","test","","","","","","","","","2","","","","","","","","","","",""
"null","","1141153","SARL_v6vxrt8tgj","msl000122","fixation","","","img/fixation.png","null","","","test","","","","","","","","","","","","","","","","","","","",""
"326","","1141484","SARL_v6vxrt8tgj","msl000122","freq","","","img/green_2bandit_b2.png","70","","70","test","1","","","circle","square","37","36","15","2","0.9444444444444444","","","","","","","","","",""
"null","","1141966","SARL_v6vxrt8tgj","msl000122","freq_resp","","","img/green_2bandit_b.png","70","img/green_2bandit_b.png","70","test","","","","","","","","","2","","","","","","","","","","",""
"null","","1142120","SARL_v6vxrt8tgj","msl000122","fixation","","","img/fixation.png","null","","","test","","","","","","","","","","","","","","","","","","","",""
"317","","1142442","SARL_v6vxrt8tgj","msl000122","freq","","","img/green_2bandit_b2.png","70","","70","test","1","","","circle","square","38","37","16","2","0.9459459459459459","","","","","","","","","",""
"null","","1142931","SARL_v6vxrt8tgj","msl000122","freq_resp","","","img/green_2bandit_b.png","70","img/green_2bandit_b.png","70","test","","","","","","","","","2","","","","","","","","","","",""
"null","","1143086","SARL_v6vxrt8tgj","msl000122","fixation","","","img/fixation.png","null","","","test","","","","","","","","","","","","","","","","","","","",""
"284","","1143377","SARL_v6vxrt8tgj","msl000122","freq","","","img/green_2bandit_b2.png","70","","70","test","1","","","circle","square","39","38","17","2","0.9473684210526315","","","","","","","","","",""
"null","","1143898","SARL_v6vxrt8tgj","msl000122","freq_resp","","","img/green_2bandit_b.png","70","img/green_2bandit_b.png","70","test","","","","","","","","","2","","","","","","","","","","",""
"null","","1144054","SARL_v6vxrt8tgj","msl000122","fixation","","","img/fixation.png","null","","","test","","","","","","","","","","","","","","","","","","","",""
"457","","1144516","SARL_v6vxrt8tgj","msl000122","infreq","","","img/orange_2bandit_b2.png","68","","68","test","1","","","circle","square","40","39","18","2","0.9487179487179487","","","","","","","","","",""
"null","","1144866","SARL_v6vxrt8tgj","msl000122","infreq_resp","","","img/orange_2bandit_b.png","68","img/orange_2bandit_b.png","68","test","","","","","","","","","2","","","","","","","","","","",""
"null","","1145021","SARL_v6vxrt8tgj","msl000122","fixation","","","img/fixation.png","null","","","test","","","","","","","","","","","","","","","","","","","",""
"403","","1145429","SARL_v6vxrt8tgj","msl000122","freq","","","img/green_2bandit_b2.png","70","","70","test","1","","","circle","square","41","40","19","2","0.95","","","","","","","","","",""
"null","","1145832","SARL_v6vxrt8tgj","msl000122","freq_resp","","","img/green_2bandit_b.png","70","img/green_2bandit_b.png","70","test","","","","","","","","","2","","","","","","","","","","",""
"null","","1145988","SARL_v6vxrt8tgj","msl000122","fixation","","","img/fixation.png","null","","","test","","","","","","","","","","","","","","","","","","","",""
"410","","1146403","SARL_v6vxrt8tgj","msl000122","freq","","","img/green_2bandit_b2.png","70","","70","test","1","","","circle","square","42","41","20","2","0.9512195121951219","","","","","","","","","",""
"null","","1146798","SARL_v6vxrt8tgj","msl000122","freq_resp","","","img/green_2bandit_b.png","70","img/green_2bandit_b.png","70","test","","","","","","","","","2","","","","","","","","","","",""
"null","","1146954","SARL_v6vxrt8tgj","msl000122","fixation","","","img/fixation.png","null","","","test","","","","","","","","","","","","","","","","","","","",""
"503","","1147461","SARL_v6vxrt8tgj","msl000122","freq","","","img/green_2bandit_b2.png","70","","70","test","1","","","circle","square","43","42","21","2","0.9523809523809523","","","","","","","","","",""
"null","","1147763","SARL_v6vxrt8tgj","msl000122","freq_resp","","","img/green_2bandit_b.png","70","img/green_2bandit_b.png","70","test","","","","","","","","","2","","","","","","","","","","",""
"null","","1147918","SARL_v6vxrt8tgj","msl000122","fixation","","","img/fixation.png","null","","","test","","","","","","","","","","","","","","","","","","","",""
"748","","1148671","SARL_v6vxrt8tgj","msl000122","rl","","","img/black_2bandit_b2.png","75","","0","test","","","1","circle","square","44","","0","2","","75","0.8","0.2","0.1989076844722376","0.8","0.2","0.2","square","2","0"
"null","","1149427","SARL_v6vxrt8tgj","msl000122","feedback","","","img/yay_R_b.png","null","","na","test","","","","","","","","","2","","75","0.8","0.2","","","","0.2","","2",""
"454","","1149886","SARL_v6vxrt8tgj","msl000122","freq","","","img/green_2bandit_b2.png","70","","70","test","1","","","circle","square","45","43","1","3","0.9534883720930233","","","","","","","","","",""
"null","","1150237","SARL_v6vxrt8tgj","msl000122","freq_resp","","","img/green_2bandit_b.png","70","img/green_2bandit_b.png","70","test","","","","","","","","","3","","","","","","","","","","",""
"null","","1150392","SARL_v6vxrt8tgj","msl000122","fixation","","","img/fixation.png","null","","","test","","","","","","","","","","","","","","","","","","","",""
"357","","1150755","SARL_v6vxrt8tgj","msl000122","freq","","","img/green_2bandit_b2.png","70","","70","test","1","","","circle","square","46","44","2","3","0.9545454545454546","","","","","","","","","",""
"null","","1151203","SARL_v6vxrt8tgj","msl000122","freq_resp","","","img/green_2bandit_b.png","70","img/green_2bandit_b.png","70","test","","","","","","","","","3","","","","","","","","","","",""
"null","","1151358","SARL_v6vxrt8tgj","msl000122","fixation","","","img/fixation.png","null","","","test","","","","","","","","","","","","","","","","","","","",""
"303","","1151667","SARL_v6vxrt8tgj","msl000122","freq","","","img/green_2bandit_b2.png","70","","70","test","1","","","circle","square","47","45","3","3","0.9555555555555556","","","","","","","","","",""
"null","","1152170","SARL_v6vxrt8tgj","msl000122","freq_resp","","","img/green_2bandit_b.png","70","img/green_2bandit_b.png","70","test","","","","","","","","","3","","","","","","","","","","",""
"null","","1152325","SARL_v6vxrt8tgj","msl000122","fixation","","","img/fixation.png","null","","","test","","","","","","","","","","","","","","","","","","","",""
"237","","1152567","SARL_v6vxrt8tgj","msl000122","freq","","","img/green_2bandit_b2.png","70","","70","test","1","","","circle","square","48","46","4","3","0.9565217391304348","","","","","","","","","",""
"null","","1153136","SARL_v6vxrt8tgj","msl000122","freq_resp","","","img/green_2bandit_b.png","70","img/green_2bandit_b.png","70","test","","","","","","","","","3","","","","","","","","","","",""
"null","","1153292","SARL_v6vxrt8tgj","msl000122","fixation","","","img/fixation.png","null","","","test","","","","","","","","","","","","","","","","","","","",""
"123","","1153419","SARL_v6vxrt8tgj","msl000122","infreq","","","img/orange_2bandit_b2.png","70","","68","test","0","","","circle","square","49","47","5","3","0.9361702127659575","","","","","","","","","",""
"null","","1154101","SARL_v6vxrt8tgj","msl000122","infreq_resp","","","img/orange_2bandit_b.png","70","img/orange_2bandit_b.png","68","test","","","","","","","","","3","","","","","","","","","","",""
"null","","1154258","SARL_v6vxrt8tgj","msl000122","fixation","","","img/fixation.png","null","","","test","","","","","","","","","","","","","","","","","","","",""
"316","","1154578","SARL_v6vxrt8tgj","msl000122","freq","","","img/green_2bandit_b2.png","70","","70","test","1","","","circle","square","50","48","6","3","0.9375","","","","","","","","","",""
"null","","1155067","SARL_v6vxrt8tgj","msl000122","freq_resp","","","img/green_2bandit_b.png","70","img/green_2bandit_b.png","70","test","","","","","","","","","3","","","","","","","","","","",""
"null","","1155222","SARL_v6vxrt8tgj","msl000122","fixation","","","img/fixation.png","null","","","test","","","","","","","","","","","","","","","","","","","",""
"354","","1155580","SARL_v6vxrt8tgj","msl000122","freq","","","img/green_2bandit_b2.png","70","","70","test","1","","","circle","square","51","49","7","3","0.9387755102040817","","","","","","","","","",""
"null","","1156032","SARL_v6vxrt8tgj","msl000122","freq_resp","","","img/green_2bandit_b.png","70","img/green_2bandit_b.png","70","test","","","","","","","","","3","","","","","","","","","","",""
"null","","1156188","SARL_v6vxrt8tgj","msl000122","fixation","","","img/fixation.png","null","","","test","","","","","","","","","","","","","","","","","","","",""
"321","","1156513","SARL_v6vxrt8tgj","msl000122","freq","","","img/green_2bandit_b2.png","70","","70","test","1","","","circle","square","52","50","8","3","0.94","","","","","","","","","",""
"null","","1156997","SARL_v6vxrt8tgj","msl000122","freq_resp","","","img/green_2bandit_b.png","70","img/green_2bandit_b.png","70","test","","","","","","","","","3","","","","","","","","","","",""
"null","","1157154","SARL_v6vxrt8tgj","msl000122","fixation","","","img/fixation.png","null","","","test","","","","","","","","","","","","","","","","","","","",""
"301","","1157458","SARL_v6vxrt8tgj","msl000122","freq","","","img/green_2bandit_b2.png","70","","70","test","1","","","circle","square","53","51","9","3","0.9411764705882353","","","","","","","","","",""
"null","","1157963","SARL_v6vxrt8tgj","msl000122","freq_resp","","","img/green_2bandit_b.png","70","img/green_2bandit_b.png","70","test","","","","","","","","","3","","","","","","","","","","",""
"null","","1158117","SARL_v6vxrt8tgj","msl000122","fixation","","","img/fixation.png","null","","","test","","","","","","","","","","","","","","","","","","","",""
"356","","1158478","SARL_v6vxrt8tgj","msl000122","freq","","","img/green_2bandit_b2.png","70","","70","test","1","","","circle","square","54","52","10","3","0.9423076923076923","","","","","","","","","",""
"null","","1158927","SARL_v6vxrt8tgj","msl000122","freq_resp","","","img/green_2bandit_b.png","70","img/green_2bandit_b.png","70","test","","","","","","","","","3","","","","","","","","","","",""
"null","","1159084","SARL_v6vxrt8tgj","msl000122","fixation","","","img/fixation.png","null","","","test","","","","","","","","","","","","","","","","","","","",""
"315","","1159404","SARL_v6vxrt8tgj","msl000122","freq","","","img/green_2bandit_b2.png","70","","70","test","1","","","circle","square","55","53","11","3","0.9433962264150944","","","","","","","","","",""
"null","","1159895","SARL_v6vxrt8tgj","msl000122","freq_resp","","","img/green_2bandit_b.png","70","img/green_2bandit_b.png","70","test","","","","","","","","","3","","","","","","","","","","",""
"null","","1160051","SARL_v6vxrt8tgj","msl000122","fixation","","","img/fixation.png","null","","","test","","","","","","","","","","","","","","","","","","","",""
"278","","1160334","SARL_v6vxrt8tgj","msl000122","freq","","","img/green_2bandit_b2.png","70","","70","test","1","","","circle","square","56","54","12","3","0.9444444444444444","","","","","","","","","",""
"null","","1160861","SARL_v6vxrt8tgj","msl000122","freq_resp","","","img/green_2bandit_b.png","70","img/green_2bandit_b.png","70","test","","","","","","","","","3","","","","","","","","","","",""
"null","","1161016","SARL_v6vxrt8tgj","msl000122","fixation","","","img/fixation.png","null","","","test","","","","","","","","","","","","","","","","","","","",""
"307","","1161328","SARL_v6vxrt8tgj","msl000122","freq","","","img/green_2bandit_b2.png","70","","70","test","1","","","circle","square","57","55","13","3","0.9454545454545454","","","","","","","","","",""
"null","","1161826","SARL_v6vxrt8tgj","msl000122","freq_resp","","","img/green_2bandit_b.png","70","img/green_2bandit_b.png","70","test","","","","","","","","","3","","","","","","","","","","",""
"null","","1161982","SARL_v6vxrt8tgj","msl000122","fixation","","","img/fixation.png","null","","","test","","","","","","","","","","","","","","","","","","","",""
"354","","1162341","SARL_v6vxrt8tgj","msl000122","freq","","","img/green_2bandit_b2.png","70","","70","test","1","","","circle","square","58","56","14","3","0.9464285714285714","","","","","","","","","",""
"null","","1162793","SARL_v6vxrt8tgj","msl000122","freq_resp","","","img/green_2bandit_b.png","70","img/green_2bandit_b.png","70","test","","","","","","","","","3","","","","","","","","","","",""
"null","","1162948","SARL_v6vxrt8tgj","msl000122","fixation","","","img/fixation.png","null","","","test","","","","","","","","","","","","","","","","","","","",""
"489","","1163441","SARL_v6vxrt8tgj","msl000122","infreq","","","img/orange_2bandit_b2.png","68","","68","test","1","","","circle","square","59","57","15","3","0.9473684210526315","","","","","","","","","",""
"null","","1163759","SARL_v6vxrt8tgj","msl000122","infreq_resp","","","img/orange_2bandit_b.png","68","img/orange_2bandit_b.png","68","test","","","","","","","","","3","","","","","","","","","","",""
"null","","1163915","SARL_v6vxrt8tgj","msl000122","fixation","","","img/fixation.png","null","","","test","","","","","","","","","","","","","","","","","","","",""
"434","","1164354","SARL_v6vxrt8tgj","msl000122","freq","","","img/green_2bandit_b2.png","70","","70","test","1","","","circle","square","60","58","16","3","0.9482758620689655","","","","","","","","","",""
"null","","1164725","SARL_v6vxrt8tgj","msl000122","freq_resp","","","img/green_2bandit_b.png","70","img/green_2bandit_b.png","70","test","","","","","","","","","3","","","","","","","","","","",""
"null","","1164882","SARL_v6vxrt8tgj","msl000122","fixation","","","img/fixation.png","null","","","test","","","","","","","","","","","","","","","","","","","",""
"340","","1165226","SARL_v6vxrt8tgj","msl000122","freq","","","img/green_2bandit_b2.png","70","","70","test","1","","","circle","square","61","59","17","3","0.9491525423728814","","","","","","","","","",""
"null","","1165693","SARL_v6vxrt8tgj","msl000122","freq_resp","","","img/green_2bandit_b.png","70","img/green_2bandit_b.png","70","test","","","","","","","","","3","","","","","","","","","","",""
"null","","1165849","SARL_v6vxrt8tgj","msl000122","fixation","","","img/fixation.png","null","","","test","","","","","","","","","","","","","","","","","","","",""
"396","","1166249","SARL_v6vxrt8tgj","msl000122","freq","","","img/green_2bandit_b2.png","70","","70","test","1","","","circle","square","62","60","18","3","0.95","","","","","","","","","",""
"null","","1166658","SARL_v6vxrt8tgj","msl000122","freq_resp","","","img/green_2bandit_b.png","70","img/green_2bandit_b.png","70","test","","","","","","","","","3","","","","","","","","","","",""
"null","","1166814","SARL_v6vxrt8tgj","msl000122","fixation","","","img/fixation.png","null","","","test","","","","","","","","","","","","","","","","","","","",""
"304","","1167122","SARL_v6vxrt8tgj","msl000122","freq","","","img/green_2bandit_b2.png","70","","70","test","1","","","circle","square","63","61","19","3","0.9508196721311475","","","","","","","","","",""
"null","","1167624","SARL_v6vxrt8tgj","msl000122","freq_resp","","","img/green_2bandit_b.png","70","img/green_2bandit_b.png","70","test","","","","","","","","","3","","","","","","","","","","",""
"null","","1167779","SARL_v6vxrt8tgj","msl000122","fixation","","","img/fixation.png","null","","","test","","","","","","","","","","","","","","","","","","","",""
"294","","1168078","SARL_v6vxrt8tgj","msl000122","freq","","","img/green_2bandit_b2.png","70","","70","test","1","","","circle","square","64","62","20","3","0.9516129032258065","","","","","","","","","",""
"null","","1168590","SARL_v6vxrt8tgj","msl000122","freq_resp","","","img/green_2bandit_b.png","70","img/green_2bandit_b.png","70","test","","","","","","","","","3","","","","","","","","","","",""
"null","","1168746","SARL_v6vxrt8tgj","msl000122","fixation","","","img/fixation.png","null","","","test","","","","","","","","","","","","","","","","","","","",""
"455","","1169206","SARL_v6vxrt8tgj","msl000122","infreq","","","img/orange_2bandit_b2.png","68","","68","test","1","","","circle","square","65","63","21","3","0.9523809523809523","","","","","","","","","",""
"null","","1169557","SARL_v6vxrt8tgj","msl000122","infreq_resp","","","img/orange_2bandit_b.png","68","img/orange_2bandit_b.png","68","test","","","","","","","","","3","","","","","","","","","","",""
"null","","1169713","SARL_v6vxrt8tgj","msl000122","fixation","","","img/fixation.png","null","","","test","","","","","","","","","","","","","","","","","","","",""
"336","","1170055","SARL_v6vxrt8tgj","msl000122","freq","","","img/green_2bandit_b2.png","70","","70","test","1","","","circle","square","66","64","22","3","0.953125","","","","","","","","","",""
"null","","1170525","SARL_v6vxrt8tgj","msl000122","freq_resp","","","img/green_2bandit_b.png","70","img/green_2bandit_b.png","70","test","","","","","","","","","3","","","","","","","","","","",""
"null","","1170681","SARL_v6vxrt8tgj","msl000122","fixation","","","img/fixation.png","null","","","test","","","","","","","","","","","","","","","","","","","",""
"372","","1171059","SARL_v6vxrt8tgj","msl000122","freq","","","img/green_2bandit_b2.png","70","","70","test","1","","","circle","square","67","65","23","3","0.9538461538461539","","","","","","","","","",""
"null","","1171492","SARL_v6vxrt8tgj","msl000122","freq_resp","","","img/green_2bandit_b.png","70","img/green_2bandit_b.png","70","test","","","","","","","","","3","","","","","","","","","","",""
"null","","1171647","SARL_v6vxrt8tgj","msl000122","fixation","","","img/fixation.png","null","","","test","","","","","","","","","","","","","","","","","","","",""
"329","","1171980","SARL_v6vxrt8tgj","msl000122","freq","","","img/green_2bandit_b2.png","70","","70","test","1","","","circle","square","68","66","24","3","0.9545454545454546","","","","","","","","","",""
"null","","1172457","SARL_v6vxrt8tgj","msl000122","freq_resp","","","img/green_2bandit_b.png","70","img/green_2bandit_b.png","70","test","","","","","","","","","3","","","","","","","","","","",""
"null","","1172613","SARL_v6vxrt8tgj","msl000122","fixation","","","img/fixation.png","null","","","test","","","","","","","","","","","","","","","","","","","",""
"291","","1172911","SARL_v6vxrt8tgj","msl000122","freq","","","img/green_2bandit_b2.png","70","","70","test","1","","","circle","square","69","67","25","3","0.9552238805970149","","","","","","","","","",""
"null","","1173425","SARL_v6vxrt8tgj","msl000122","freq_resp","","","img/green_2bandit_b.png","70","img/green_2bandit_b.png","70","test","","","","","","","","","3","","","","","","","","","","",""
"null","","1173580","SARL_v6vxrt8tgj","msl000122","fixation","","","img/fixation.png","null","","","test","","","","","","","","","","","","","","","","","","","",""
"249","","1173833","SARL_v6vxrt8tgj","msl000122","freq","","","img/green_2bandit_b2.png","70","","70","test","1","","","circle","square","70","68","26","3","0.9558823529411765","","","","","","","","","",""
"null","","1174390","SARL_v6vxrt8tgj","msl000122","freq_resp","","","img/green_2bandit_b.png","70","img/green_2bandit_b.png","70","test","","","","","","","","","3","","","","","","","","","","",""
"null","","1174546","SARL_v6vxrt8tgj","msl000122","fixation","","","img/fixation.png","null","","","test","","","","","","","","","","","","","","","","","","","",""
"1255","","1175805","SARL_v6vxrt8tgj","msl000122","rl","","","img/black_2bandit_b2.png","74","","0","test","","","1","circle","square","71","","0","3","","74","0.8","0.2","0.6358157007357959","0.8","0.2","0.8","circle","3","0"
"null","","1176560","SARL_v6vxrt8tgj","msl000122","feedback","","","img/yay_L_b.png","null","","na","test","","","","","","","","","3","","74","0.8","0.2","","","","0.8","","3",""
"629","","1177194","SARL_v6vxrt8tgj","msl000122","freq","","","img/green_2bandit_b2.png","70","","70","test","1","","","circle","square","72","69","1","4","0.9565217391304348","","","","","","","","","",""
"null","","1177371","SARL_v6vxrt8tgj","msl000122","freq_resp","","","img/green_2bandit_b.png","70","img/green_2bandit_b.png","70","test","","","","","","","","","4","","","","","","","","","","",""
"null","","1177527","SARL_v6vxrt8tgj","msl000122","fixation","","","img/fixation.png","null","","","test","","","","","","","","","","","","","","","","","","","",""
"461","","1177993","SARL_v6vxrt8tgj","msl000122","freq","","","img/green_2bandit_b2.png","70","","70","test","1","","","circle","square","73","70","2","4","0.9571428571428572","","","","","","","","","",""
"null","","1178338","SARL_v6vxrt8tgj","msl000122","freq_resp","","","img/green_2bandit_b.png","70","img/green_2bandit_b.png","70","test","","","","","","","","","4","","","","","","","","","","",""
"null","","1178494","SARL_v6vxrt8tgj","msl000122","fixation","","","img/fixation.png","null","","","test","","","","","","","","","","","","","","","","","","","",""
"358","","1178856","SARL_v6vxrt8tgj","msl000122","freq","","","img/green_2bandit_b2.png","70","","70","test","1","","","circle","square","74","71","3","4","0.9577464788732394","","","","","","","","","",""
"null","","1179303","SARL_v6vxrt8tgj","msl000122","freq_resp","","","img/green_2bandit_b.png","70","img/green_2bandit_b.png","70","test","","","","","","","","","4","","","","","","","","","","",""
"null","","1179458","SARL_v6vxrt8tgj","msl000122","fixation","","","img/fixation.png","null","","","test","","","","","","","","","","","","","","","","","","","",""
"322","","1179785","SARL_v6vxrt8tgj","msl000122","freq","","","img/green_2bandit_b2.png","70","","70","test","1","","","circle","square","75","72","4","4","0.9583333333333334","","","","","","","","","",""
"null","","1180268","SARL_v6vxrt8tgj","msl000122","freq_resp","","","img/green_2bandit_b.png","70","img/green_2bandit_b.png","70","test","","","","","","","","","4","","","","","","","","","","",""
"null","","1180425","SARL_v6vxrt8tgj","msl000122","fixation","","","img/fixation.png","null","","","test","","","","","","","","","","","","","","","","","","","",""
"295","","1180723","SARL_v6vxrt8tgj","msl000122","freq","","","img/green_2bandit_b2.png","70","","70","test","1","","","circle","square","76","73","5","4","0.958904109589041","","","","","","","","","",""
"null","","1181234","SARL_v6vxrt8tgj","msl000122","freq_resp","","","img/green_2bandit_b.png","70","img/green_2bandit_b.png","70","test","","","","","","","","","4","","","","","","","","","","",""
"null","","1181389","SARL_v6vxrt8tgj","msl000122","fixation","","","img/fixation.png","null","","","test","","","","","","","","","","","","","","","","","","","",""
"319","","1181713","SARL_v6vxrt8tgj","msl000122","freq","","","img/green_2bandit_b2.png","70","","70","test","1","","","circle","square","77","74","6","4","0.9594594594594594","","","","","","","","","",""
"null","","1182200","SARL_v6vxrt8tgj","msl000122","freq_resp","","","img/green_2bandit_b.png","70","img/green_2bandit_b.png","70","test","","","","","","","","","4","","","","","","","","","","",""
"null","","1182355","SARL_v6vxrt8tgj","msl000122","fixation","","","img/fixation.png","null","","","test","","","","","","","","","","","","","","","","","","","",""
"291","","1182651","SARL_v6vxrt8tgj","msl000122","freq","","","img/green_2bandit_b2.png","70","","70","test","1","","","circle","square","78","75","7","4","0.96","","","","","","","","","",""
"null","","1183166","SARL_v6vxrt8tgj","msl000122","freq_resp","","","img/green_2bandit_b.png","70","img/green_2bandit_b.png","70","test","","","","","","","","","4","","","","","","","","","","",""
"null","","1183321","SARL_v6vxrt8tgj","msl000122","fixation","","","img/fixation.png","null","","","test","","","","","","","","","","","","","","","","","","","",""
"307","","1183633","SARL_v6vxrt8tgj","msl000122","freq","","","img/green_2bandit_b2.png","70","","70","test","1","","","circle","square","79","76","8","4","0.9605263157894737","","","","","","","","","",""
"null","","1184132","SARL_v6vxrt8tgj","msl000122","freq_resp","","","img/green_2bandit_b.png","70","img/green_2bandit_b.png","70","test","","","","","","","","","4","","","","","","","","","","",""
"null","","1184288","SARL_v6vxrt8tgj","msl000122","fixation","","","img/fixation.png","null","","","test","","","","","","","","","","","","","","","","","","","",""
"355","","1184647","SARL_v6vxrt8tgj","msl000122","freq","","","img/green_2bandit_b2.png","70","","70","test","1","","","circle","square","80","77","9","4","0.961038961038961","","","","","","","","","",""
"null","","1185098","SARL_v6vxrt8tgj","msl000122","freq_resp","","","img/green_2bandit_b.png","70","img/green_2bandit_b.png","70","test","","","","","","","","","4","","","","","","","","","","",""
"null","","1185254","SARL_v6vxrt8tgj","msl000122","fixation","","","img/fixation.png","null","","","test","","","","","","","","","","","","","","","","","","","",""
"317","","1185576","SARL_v6vxrt8tgj","msl000122","freq","","","img/green_2bandit_b2.png","70","","70","test","1","","","circle","square","81","78","10","4","0.9615384615384616","","","","","","","","","",""
"null","","1186064","SARL_v6vxrt8tgj","msl000122","freq_resp","","","img/green_2bandit_b.png","70","img/green_2bandit_b.png","70","test","","","","","","","","","4","","","","","","","","","","",""
"null","","1186220","SARL_v6vxrt8tgj","msl000122","fixation","","","img/fixation.png","null","","","test","","","","","","","","","","","","","","","","","","","",""
"260","","1186485","SARL_v6vxrt8tgj","msl000122","freq","","","img/green_2bandit_b2.png","70","","70","test","1","","","circle","square","82","79","11","4","0.9620253164556962","","","","","","","","","",""
"null","","1187030","SARL_v6vxrt8tgj","msl000122","freq_resp","","","img/green_2bandit_b.png","70","img/green_2bandit_b.png","70","test","","","","","","","","","4","","","","","","","","","","",""
"null","","1187185","SARL_v6vxrt8tgj","msl000122","fixation","","","img/fixation.png","null","","","test","","","","","","","","","","","","","","","","","","","",""
"506","","1187696","SARL_v6vxrt8tgj","msl000122","infreq","","","img/orange_2bandit_b2.png","68","","68","test","1","","","circle","square","83","80","12","4","0.9625","","","","","","","","","",""
"null","","1187996","SARL_v6vxrt8tgj","msl000122","infreq_resp","","","img/orange_2bandit_b.png","68","img/orange_2bandit_b.png","68","test","","","","","","","","","4","","","","","","","","","","",""
"null","","1188151","SARL_v6vxrt8tgj","msl000122","fixation","","","img/fixation.png","null","","","test","","","","","","","","","","","","","","","","","","","",""
"465","","1188621","SARL_v6vxrt8tgj","msl000122","freq","","","img/green_2bandit_b2.png","70","","70","test","1","","","circle","square","84","81","13","4","0.9629629629629629","","","","","","","","","",""
"null","","1188962","SARL_v6vxrt8tgj","msl000122","freq_resp","","","img/green_2bandit_b.png","70","img/green_2bandit_b.png","70","test","","","","","","","","","4","","","","","","","","","","",""
"null","","1189117","SARL_v6vxrt8tgj","msl000122","fixation","","","img/fixation.png","null","","","test","","","","","","","","","","","","","","","","","","","",""
"509","","1189630","SARL_v6vxrt8tgj","msl000122","freq","","","img/green_2bandit_b2.png","70","","70","test","1","","","circle","square","85","82","14","4","0.9634146341463414","","","","","","","","","",""
"null","","1189927","SARL_v6vxrt8tgj","msl000122","freq_resp","","","img/green_2bandit_b.png","70","img/green_2bandit_b.png","70","test","","","","","","","","","4","","","","","","","","","","",""
"null","","1190082","SARL_v6vxrt8tgj","msl000122","fixation","","","img/fixation.png","null","","","test","","","","","","","","","","","","","","","","","","","",""
"403","","1190490","SARL_v6vxrt8tgj","msl000122","freq","","","img/green_2bandit_b2.png","70","","70","test","1","","","circle","square","86","83","15","4","0.963855421686747","","","","","","","","","",""
"null","","1190891","SARL_v6vxrt8tgj","msl000122","freq_resp","","","img/green_2bandit_b.png","70","img/green_2bandit_b.png","70","test","","","","","","","","","4","","","","","","","","","","",""
"null","","1191047","SARL_v6vxrt8tgj","msl000122","fixation","","","img/fixation.png","null","","","test","","","","","","","","","","","","","","","","","","","",""
"460","","1191512","SARL_v6vxrt8tgj","msl000122","freq","","","img/green_2bandit_b2.png","70","","70","test","1","","","circle","square","87","84","16","4","0.9642857142857143","","","","","","","","","",""
"null","","1191858","SARL_v6vxrt8tgj","msl000122","freq_resp","","","img/green_2bandit_b.png","70","img/green_2bandit_b.png","70","test","","","","","","","","","4","","","","","","","","","","",""
"null","","1192013","SARL_v6vxrt8tgj","msl000122","fixation","","","img/fixation.png","null","","","test","","","","","","","","","","","","","","","","","","","",""
"456","","1192473","SARL_v6vxrt8tgj","msl000122","freq","","","img/green_2bandit_b2.png","70","","70","test","1","","","circle","square","88","85","17","4","0.9647058823529412","","","","","","","","","",""
"null","","1192823","SARL_v6vxrt8tgj","msl000122","freq_resp","","","img/green_2bandit_b.png","70","img/green_2bandit_b.png","70","test","","","","","","","","","4","","","","","","","","","","",""
"null","","1192979","SARL_v6vxrt8tgj","msl000122","fixation","","","img/fixation.png","null","","","test","","","","","","","","","","","","","","","","","","","",""
"493","","1193477","SARL_v6vxrt8tgj","msl000122","freq","","","img/green_2bandit_b2.png","70","","70","test","1","","","circle","square","89","86","18","4","0.9651162790697675","","","","","","","","","",""
"null","","1193790","SARL_v6vxrt8tgj","msl000122","freq_resp","","","img/green_2bandit_b.png","70","img/green_2bandit_b.png","70","test","","","","","","","","","4","","","","","","","","","","",""
"null","","1193946","SARL_v6vxrt8tgj","msl000122","fixation","","","img/fixation.png","null","","","test","","","","","","","","","","","","","","","","","","","",""
"479","","1194430","SARL_v6vxrt8tgj","msl000122","infreq","","","img/orange_2bandit_b2.png","68","","68","test","1","","","circle","square","90","87","19","4","0.9655172413793104","","","","","","","","","",""
"null","","1194756","SARL_v6vxrt8tgj","msl000122","infreq_resp","","","img/orange_2bandit_b.png","68","img/orange_2bandit_b.png","68","test","","","","","","","","","4","","","","","","","","","","",""
"null","","1194912","SARL_v6vxrt8tgj","msl000122","fixation","","","img/fixation.png","null","","","test","","","","","","","","","","","","","","","","","","","",""
"400","","1195317","SARL_v6vxrt8tgj","msl000122","freq","","","img/green_2bandit_b2.png","70","","70","test","1","","","circle","square","91","88","20","4","0.9659090909090909","","","","","","","","","",""
"null","","1195722","SARL_v6vxrt8tgj","msl000122","freq_resp","","","img/green_2bandit_b.png","70","img/green_2bandit_b.png","70","test","","","","","","","","","4","","","","","","","","","","",""
"null","","1195878","SARL_v6vxrt8tgj","msl000122","fixation","","","img/fixation.png","null","","","test","","","","","","","","","","","","","","","","","","","",""
"313","","1196196","SARL_v6vxrt8tgj","msl000122","freq","","","img/green_2bandit_b2.png","70","","70","test","1","","","circle","square","92","89","21","4","0.9662921348314607","","","","","","","","","",""
"null","","1196688","SARL_v6vxrt8tgj","msl000122","freq_resp","","","img/green_2bandit_b.png","70","img/green_2bandit_b.png","70","test","","","","","","","","","4","","","","","","","","","","",""
"null","","1196843","SARL_v6vxrt8tgj","msl000122","fixation","","","img/fixation.png","null","","","test","","","","","","","","","","","","","","","","","","","",""
"260","","1197108","SARL_v6vxrt8tgj","msl000122","freq","","","img/green_2bandit_b2.png","70","","70","test","1","","","circle","square","93","90","22","4","0.9666666666666667","","","","","","","","","",""
"null","","1197653","SARL_v6vxrt8tgj","msl000122","freq_resp","","","img/green_2bandit_b.png","70","img/green_2bandit_b.png","70","test","","","","","","","","","4","","","","","","","","","","",""
"null","","1197808","SARL_v6vxrt8tgj","msl000122","fixation","","","img/fixation.png","null","","","test","","","","","","","","","","","","","","","","","","","",""
"293","","1198106","SARL_v6vxrt8tgj","msl000122","freq","","","img/green_2bandit_b2.png","70","","70","test","1","","","circle","square","94","91","23","4","0.967032967032967","","","","","","","","","",""
"null","","1198618","SARL_v6vxrt8tgj","msl000122","freq_resp","","","img/green_2bandit_b.png","70","img/green_2bandit_b.png","70","test","","","","","","","","","4","","","","","","","","","","",""
"null","","1198773","SARL_v6vxrt8tgj","msl000122","fixation","","","img/fixation.png","null","","","test","","","","","","","","","","","","","","","","","","","",""
"309","","1199087","SARL_v6vxrt8tgj","msl000122","freq","","","img/green_2bandit_b2.png","70","","70","test","1","","","circle","square","95","92","24","4","0.967391304347826","","","","","","","","","",""
"null","","1199583","SARL_v6vxrt8tgj","msl000122","freq_resp","","","img/green_2bandit_b.png","70","img/green_2bandit_b.png","70","test","","","","","","","","","4","","","","","","","","","","",""
"null","","1199738","SARL_v6vxrt8tgj","msl000122","fixation","","","img/fixation.png","null","","","test","","","","","","","","","","","","","","","","","","","",""
"310","","1200053","SARL_v6vxrt8tgj","msl000122","freq","","","img/green_2bandit_b2.png","70","","70","test","1","","","circle","square","96","93","25","4","0.967741935483871","","","","","","","","","",""
"null","","1200549","SARL_v6vxrt8tgj","msl000122","freq_resp","","","img/green_2bandit_b.png","70","img/green_2bandit_b.png","70","test","","","","","","","","","4","","","","","","","","","","",""
"null","","1200704","SARL_v6vxrt8tgj","msl000122","fixation","","","img/fixation.png","null","","","test","","","","","","","","","","","","","","","","","","","",""
"279","","1200987","SARL_v6vxrt8tgj","msl000122","freq","","","img/green_2bandit_b2.png","70","","70","test","1","","","circle","square","97","94","26","4","0.9680851063829787","","","","","","","","","",""
"null","","1201514","SARL_v6vxrt8tgj","msl000122","freq_resp","","","img/green_2bandit_b.png","70","img/green_2bandit_b.png","70","test","","","","","","","","","4","","","","","","","","","","",""
"null","","1201670","SARL_v6vxrt8tgj","msl000122","fixation","","","img/fixation.png","null","","","test","","","","","","","","","","","","","","","","","","","",""
"723","","1202397","SARL_v6vxrt8tgj","msl000122","rl","","","img/black_2bandit_b2.png","75","","0","test","","","0","circle","square","98","","0","4","","75","0.8","0.2","0.8458488565850033","0.8","0.2","0.2","square","4","0"
"null","","1203153","SARL_v6vxrt8tgj","msl000122","feedback","","","img/boo_R_b.png","null","","na","test","","","","","","","","","4","","75","0.8","0.2","","","","0.2","","4",""
"600","","1203758","SARL_v6vxrt8tgj","msl000122","freq","","","img/green_2bandit_b2.png","70","","70","test","1","","","circle","square","99","95","1","5","0.968421052631579","","","","","","","","","",""
"null","","1203964","SARL_v6vxrt8tgj","msl000122","freq_resp","","","img/green_2bandit_b.png","70","img/green_2bandit_b.png","70","test","","","","","","","","","5","","","","","","","","","","",""
"null","","1204119","SARL_v6vxrt8tgj","msl000122","fixation","","","img/fixation.png","null","","","test","","","","","","","","","","","","","","","","","","","",""
"709","","1204833","SARL_v6vxrt8tgj","msl000122","freq","","","img/green_2bandit_b2.png","70","","70","test","1","","","circle","square","100","96","2","5","0.96875","","","","","","","","","",""
"null","","1204928","SARL_v6vxrt8tgj","msl000122","freq_resp","","","img/green_2bandit_b.png","70","img/green_2bandit_b.png","70","test","","","","","","","","","5","","","","","","","","","","",""
"null","","1205084","SARL_v6vxrt8tgj","msl000122","fixation","","","img/fixation.png","null","","","test","","","","","","","","","","","","","","","","","","","",""
"631","","1205720","SARL_v6vxrt8tgj","msl000122","freq","","","img/green_2bandit_b2.png","70","","70","test","1","","","circle","square","101","97","3","5","0.9690721649484536","","","","","","","","","",""
"null","","1205894","SARL_v6vxrt8tgj","msl000122","freq_resp","","","img/green_2bandit_b.png","70","img/green_2bandit_b.png","70","test","","","","","","","","","5","","","","","","","","","","",""
"null","","1206049","SARL_v6vxrt8tgj","msl000122","fixation","","","img/fixation.png","null","","","test","","","","","","","","","","","","","","","","","","","",""
"474","","1206528","SARL_v6vxrt8tgj","msl000122","freq","","","img/green_2bandit_b2.png","70","","70","test","1","","","circle","square","102","98","4","5","0.9693877551020408","","","","","","","","","",""
"null","","1206860","SARL_v6vxrt8tgj","msl000122","freq_resp","","","img/green_2bandit_b.png","70","img/green_2bandit_b.png","70","test","","","","","","","","","5","","","","","","","","","","",""
"null","","1207015","SARL_v6vxrt8tgj","msl000122","fixation","","","img/fixation.png","null","","","test","","","","","","","","","","","","","","","","","","","",""
"440","","1207460","SARL_v6vxrt8tgj","msl000122","freq","","","img/green_2bandit_b2.png","70","","70","test","1","","","circle","square","103","99","5","5","0.9696969696969697","","","","","","","","","",""
"null","","1207825","SARL_v6vxrt8tgj","msl000122","freq_resp","","","img/green_2bandit_b.png","70","img/green_2bandit_b.png","70","test","","","","","","","","","5","","","","","","","","","","",""
"null","","1207980","SARL_v6vxrt8tgj","msl000122","fixation","","","img/fixation.png","null","","","test","","","","","","","","","","","","","","","","","","","",""
"370","","1208355","SARL_v6vxrt8tgj","msl000122","freq","","","img/green_2bandit_b2.png","70","","70","test","1","","","circle","square","104","100","6","5","0.97","","","","","","","","","",""
"null","","1208790","SARL_v6vxrt8tgj","msl000122","freq_resp","","","img/green_2bandit_b.png","70","img/green_2bandit_b.png","70","test","","","","","","","","","5","","","","","","","","","","",""
"null","","1208946","SARL_v6vxrt8tgj","msl000122","fixation","","","img/fixation.png","null","","","test","","","","","","","","","","","","","","","","","","","",""
"279","","1209229","SARL_v6vxrt8tgj","msl000122","freq","","","img/green_2bandit_b2.png","70","","70","test","1","","","circle","square","105","101","7","5","0.9702970297029703","","","","","","","","","",""
"null","","1209755","SARL_v6vxrt8tgj","msl000122","freq_resp","","","img/green_2bandit_b.png","70","img/green_2bandit_b.png","70","test","","","","","","","","","5","","","","","","","","","","",""
"null","","1209910","SARL_v6vxrt8tgj","msl000122","fixation","","","img/fixation.png","null","","","test","","","","","","","","","","","","","","","","","","","",""
"372","","1210287","SARL_v6vxrt8tgj","msl000122","freq","","","img/green_2bandit_b2.png","70","","70","test","1","","","circle","square","106","102","8","5","0.9705882352941176","","","","","","","","","",""
"null","","1210721","SARL_v6vxrt8tgj","msl000122","freq_resp","","","img/green_2bandit_b.png","70","img/green_2bandit_b.png","70","test","","","","","","","","","5","","","","","","","","","","",""
"null","","1210877","SARL_v6vxrt8tgj","msl000122","fixation","","","img/fixation.png","null","","","test","","","","","","","","","","","","","","","","","","","",""
"344","","1211225","SARL_v6vxrt8tgj","msl000122","freq","","","img/green_2bandit_b2.png","70","","70","test","1","","","circle","square","107","103","9","5","0.970873786407767","","","","","","","","","",""
"null","","1211686","SARL_v6vxrt8tgj","msl000122","freq_resp","","","img/green_2bandit_b.png","70","img/green_2bandit_b.png","70","test","","","","","","","","","5","","","","","","","","","","",""
"null","","1211842","SARL_v6vxrt8tgj","msl000122","fixation","","","img/fixation.png","null","","","test","","","","","","","","","","","","","","","","","","","",""
"312","","1212157","SARL_v6vxrt8tgj","msl000122","freq","","","img/green_2bandit_b2.png","70","","70","test","1","","","circle","square","108","104","10","5","0.9711538461538461","","","","","","","","","",""
"null","","1212651","SARL_v6vxrt8tgj","msl000122","freq_resp","","","img/green_2bandit_b.png","70","img/green_2bandit_b.png","70","test","","","","","","","","","5","","","","","","","","","","",""
"null","","1212807","SARL_v6vxrt8tgj","msl000122","fixation","","","img/fixation.png","null","","","test","","","","","","","","","","","","","","","","","","","",""
"561","","1213373","SARL_v6vxrt8tgj","msl000122","infreq","","","img/orange_2bandit_b2.png","68","","68","test","1","","","circle","square","109","105","11","5","0.9714285714285714","","","","","","","","","",""
"null","","1213617","SARL_v6vxrt8tgj","msl000122","infreq_resp","","","img/orange_2bandit_b.png","68","img/orange_2bandit_b.png","68","test","","","","","","","","","5","","","","","","","","","","",""
"null","","1213772","SARL_v6vxrt8tgj","msl000122","fixation","","","img/fixation.png","null","","","test","","","","","","","","","","","","","","","","","","","",""
"686","","1214462","SARL_v6vxrt8tgj","msl000122","freq","","","img/green_2bandit_b2.png","70","","70","test","1","","","circle","square","110","106","12","5","0.9716981132075472","","","","","","","","","",""
"null","","1214582","SARL_v6vxrt8tgj","msl000122","freq_resp","","","img/green_2bandit_b.png","70","img/green_2bandit_b.png","70","test","","","","","","","","","5","","","","","","","","","","",""
"null","","1214738","SARL_v6vxrt8tgj","msl000122","fixation","","","img/fixation.png","null","","","test","","","","","","","","","","","","","","","","","","","",""
"508","","1215249","SARL_v6vxrt8tgj","msl000122","freq","","","img/green_2bandit_b2.png","70","","70","test","1","","","circle","square","111","107","13","5","0.9719626168224299","","","","","","","","","",""
"null","","1215547","SARL_v6vxrt8tgj","msl000122","freq_resp","","","img/green_2bandit_b.png","70","img/green_2bandit_b.png","70","test","","","","","","","","","5","","","","","","","","","","",""
"null","","1215703","SARL_v6vxrt8tgj","msl000122","fixation","","","img/fixation.png","null","","","test","","","","","","","","","","","","","","","","","","","",""
"400","","1216108","SARL_v6vxrt8tgj","msl000122","freq","","","img/green_2bandit_b2.png","70","","70","test","1","","","circle","square","112","108","14","5","0.9722222222222222","","","","","","","","","",""
"null","","1216514","SARL_v6vxrt8tgj","msl000122","freq_resp","","","img/green_2bandit_b.png","70","img/green_2bandit_b.png","70","test","","","","","","","","","5","","","","","","","","","","",""
"null","","1216669","SARL_v6vxrt8tgj","msl000122","fixation","","","img/fixation.png","null","","","test","","","","","","","","","","","","","","","","","","","",""
"318","","1216991","SARL_v6vxrt8tgj","msl000122","freq","","","img/green_2bandit_b2.png","70","","70","test","1","","","circle","square","113","109","15","5","0.9724770642201835","","","","","","","","","",""
"null","","1217478","SARL_v6vxrt8tgj","msl000122","freq_resp","","","img/green_2bandit_b.png","70","img/green_2bandit_b.png","70","test","","","","","","","","","5","","","","","","","","","","",""
"null","","1217634","SARL_v6vxrt8tgj","msl000122","fixation","","","img/fixation.png","null","","","test","","","","","","","","","","","","","","","","","","","",""
"270","","1217909","SARL_v6vxrt8tgj","msl000122","freq","","","img/green_2bandit_b2.png","70","","70","test","1","","","circle","square","114","110","16","5","0.9727272727272728","","","","","","","","","",""
"null","","1218444","SARL_v6vxrt8tgj","msl000122","freq_resp","","","img/green_2bandit_b.png","70","img/green_2bandit_b.png","70","test","","","","","","","","","5","","","","","","","","","","",""
"null","","1218600","SARL_v6vxrt8tgj","msl000122","fixation","","","img/fixation.png","null","","","test","","","","","","","","","","","","","","","","","","","",""
"288","","1218892","SARL_v6vxrt8tgj","msl000122","freq","","","img/green_2bandit_b2.png","70","","70","test","1","","","circle","square","115","111","17","5","0.972972972972973","","","","","","","","","",""
"null","","1219410","SARL_v6vxrt8tgj","msl000122","freq_resp","","","img/green_2bandit_b.png","70","img/green_2bandit_b.png","70","test","","","","","","","","","5","","","","","","","","","","",""
"null","","1219567","SARL_v6vxrt8tgj","msl000122","fixation","","","img/fixation.png","null","","","test","","","","","","","","","","","","","","","","","","","",""
"364","","1219936","SARL_v6vxrt8tgj","msl000122","freq","","","img/green_2bandit_b2.png","70","","70","test","1","","","circle","square","116","112","18","5","0.9732142857142857","","","","","","","","","",""
"null","","1220378","SARL_v6vxrt8tgj","msl000122","freq_resp","","","img/green_2bandit_b.png","70","img/green_2bandit_b.png","70","test","","","","","","","","","5","","","","","","","","","","",""
"null","","1220532","SARL_v6vxrt8tgj","msl000122","fixation","","","img/fixation.png","null","","","test","","","","","","","","","","","","","","","","","","","",""
"368","","1220906","SARL_v6vxrt8tgj","msl000122","freq","","","img/green_2bandit_b2.png","70","","70","test","1","","","circle","square","117","113","19","5","0.9734513274336283","","","","","","","","","",""
"null","","1221343","SARL_v6vxrt8tgj","msl000122","freq_resp","","","img/green_2bandit_b.png","70","img/green_2bandit_b.png","70","test","","","","","","","","","5","","","","","","","","","","",""
"null","","1221499","SARL_v6vxrt8tgj","msl000122","fixation","","","img/fixation.png","null","","","test","","","","","","","","","","","","","","","","","","","",""
"563","","1222066","SARL_v6vxrt8tgj","msl000122","infreq","","","img/orange_2bandit_b2.png","68","","68","test","1","","","circle","square","118","114","20","5","0.9736842105263158","","","","","","","","","",""
"null","","1222308","SARL_v6vxrt8tgj","msl000122","infreq_resp","","","img/orange_2bandit_b.png","68","img/orange_2bandit_b.png","68","test","","","","","","","","","5","","","","","","","","","","",""
"null","","1222464","SARL_v6vxrt8tgj","msl000122","fixation","","","img/fixation.png","null","","","test","","","","","","","","","","","","","","","","","","","",""
"440","","1222909","SARL_v6vxrt8tgj","msl000122","freq","","","img/green_2bandit_b2.png","70","","70","test","1","","","circle","square","119","115","21","5","0.9739130434782609","","","","","","","","","",""
"null","","1223274","SARL_v6vxrt8tgj","msl000122","freq_resp","","","img/green_2bandit_b.png","70","img/green_2bandit_b.png","70","test","","","","","","","","","5","","","","","","","","","","",""
"null","","1223431","SARL_v6vxrt8tgj","msl000122","fixation","","","img/fixation.png","null","","","test","","","","","","","","","","","","","","","","","","","",""
"363","","1223798","SARL_v6vxrt8tgj","msl000122","freq","","","img/green_2bandit_b2.png","70","","70","test","1","","","circle","square","120","116","22","5","0.9741379310344828","","","","","","","","","",""
"null","","1224241","SARL_v6vxrt8tgj","msl000122","freq_resp","","","img/green_2bandit_b.png","70","img/green_2bandit_b.png","70","test","","","","","","","","","5","","","","","","","","","","",""
"null","","1224397","SARL_v6vxrt8tgj","msl000122","fixation","","","img/fixation.png","null","","","test","","","","","","","","","","","","","","","","","","","",""
"347","","1224750","SARL_v6vxrt8tgj","msl000122","freq","","","img/green_2bandit_b2.png","70","","70","test","1","","","circle","square","121","117","23","5","0.9743589743589743","","","","","","","","","",""
"null","","1225208","SARL_v6vxrt8tgj","msl000122","freq_resp","","","img/green_2bandit_b.png","70","img/green_2bandit_b.png","70","test","","","","","","","","","5","","","","","","","","","","",""
"null","","1225363","SARL_v6vxrt8tgj","msl000122","fixation","","","img/fixation.png","null","","","test","","","","","","","","","","","","","","","","","","","",""
"983","","1226350","SARL_v6vxrt8tgj","msl000122","rl","","","img/black_2bandit_b2.png","75","","0","test","","","0","circle","square","122","","0","5","","75","0.8","0.2","0.2744312676491353","0.8","0.2","0.2","square","5","0"
"null","","1227106","SARL_v6vxrt8tgj","msl000122","feedback","","","img/boo_R_b.png","null","","na","test","","","","","","","","","5","","75","0.8","0.2","","","","0.2","","5",""
"551","","1227662","SARL_v6vxrt8tgj","msl000122","freq","","","img/green_2bandit_b2.png","70","","70","test","1","","","circle","square","123","118","1","6","0.9745762711864406","","","","","","","","","",""
"null","","1227917","SARL_v6vxrt8tgj","msl000122","freq_resp","","","img/green_2bandit_b.png","70","img/green_2bandit_b.png","70","test","","","","","","","","","6","","","","","","","","","","",""
"null","","1228072","SARL_v6vxrt8tgj","msl000122","fixation","","","img/fixation.png","null","","","test","","","","","","","","","","","","","","","","","","","",""
"604","","1228679","SARL_v6vxrt8tgj","msl000122","infreq","","","img/orange_2bandit_b2.png","68","","68","test","1","","","circle","square","124","119","2","6","0.9747899159663865","","","","","","","","","",""
"null","","1228881","SARL_v6vxrt8tgj","msl000122","infreq_resp","","","img/orange_2bandit_b.png","68","img/orange_2bandit_b.png","68","test","","","","","","","","","6","","","","","","","","","","",""
"null","","1229036","SARL_v6vxrt8tgj","msl000122","fixation","","","img/fixation.png","null","","","test","","","","","","","","","","","","","","","","","","","",""
"525","","1229567","SARL_v6vxrt8tgj","msl000122","freq","","","img/green_2bandit_b2.png","70","","70","test","1","","","circle","square","125","120","3","6","0.975","","","","","","","","","",""
"null","","1229847","SARL_v6vxrt8tgj","msl000122","freq_resp","","","img/green_2bandit_b.png","70","img/green_2bandit_b.png","70","test","","","","","","","","","6","","","","","","","","","","",""
"null","","1230003","SARL_v6vxrt8tgj","msl000122","fixation","","","img/fixation.png","null","","","test","","","","","","","","","","","","","","","","","","","",""
"450","","1230458","SARL_v6vxrt8tgj","msl000122","freq","","","img/green_2bandit_b2.png","70","","70","test","1","","","circle","square","126","121","4","6","0.9752066115702479","","","","","","","","","",""
"null","","1230814","SARL_v6vxrt8tgj","msl000122","freq_resp","","","img/green_2bandit_b.png","70","img/green_2bandit_b.png","70","test","","","","","","","","","6","","","","","","","","","","",""
"null","","1230968","SARL_v6vxrt8tgj","msl000122","fixation","","","img/fixation.png","null","","","test","","","","","","","","","","","","","","","","","","","",""
"386","","1231360","SARL_v6vxrt8tgj","msl000122","freq","","","img/green_2bandit_b2.png","70","","70","test","1","","","circle","square","127","122","5","6","0.9754098360655737","","","","","","","","","",""
"null","","1231779","SARL_v6vxrt8tgj","msl000122","freq_resp","","","img/green_2bandit_b.png","70","img/green_2bandit_b.png","70","test","","","","","","","","","6","","","","","","","","","","",""
"null","","1231934","SARL_v6vxrt8tgj","msl000122","fixation","","","img/fixation.png","null","","","test","","","","","","","","","","","","","","","","","","","",""
"388","","1232328","SARL_v6vxrt8tgj","msl000122","freq","","","img/green_2bandit_b2.png","70","","70","test","1","","","circle","square","128","123","6","6","0.975609756097561","","","","","","","","","",""
"null","","1232747","SARL_v6vxrt8tgj","msl000122","freq_resp","","","img/green_2bandit_b.png","70","img/green_2bandit_b.png","70","test","","","","","","","","","6","","","","","","","","","","",""
"null","","1232903","SARL_v6vxrt8tgj","msl000122","fixation","","","img/fixation.png","null","","","test","","","","","","","","","","","","","","","","","","","",""
"391","","1233298","SARL_v6vxrt8tgj","msl000122","freq","","","img/green_2bandit_b2.png","70","","70","test","1","","","circle","square","129","124","7","6","0.9758064516129032","","","","","","","","","",""
"null","","1233713","SARL_v6vxrt8tgj","msl000122","freq_resp","","","img/green_2bandit_b.png","70","img/green_2bandit_b.png","70","test","","","","","","","","","6","","","","","","","","","","",""
"null","","1233870","SARL_v6vxrt8tgj","msl000122","fixation","","","img/fixation.png","null","","","test","","","","","","","","","","","","","","","","","","","",""
"340","","1234215","SARL_v6vxrt8tgj","msl000122","freq","","","img/green_2bandit_b2.png","70","","70","test","1","","","circle","square","130","125","8","6","0.976","","","","","","","","","",""
"null","","1234681","SARL_v6vxrt8tgj","msl000122","freq_resp","","","img/green_2bandit_b.png","70","img/green_2bandit_b.png","70","test","","","","","","","","","6","","","","","","","","","","",""
"null","","1234837","SARL_v6vxrt8tgj","msl000122","fixation","","","img/fixation.png","null","","","test","","","","","","","","","","","","","","","","","","","",""
"262","","1235105","SARL_v6vxrt8tgj","msl000122","freq","","","img/green_2bandit_b2.png","70","","70","test","1","","","circle","square","131","126","9","6","0.9761904761904762","","","","","","","","","",""
"null","","1235649","SARL_v6vxrt8tgj","msl000122","freq_resp","","","img/green_2bandit_b.png","70","img/green_2bandit_b.png","70","test","","","","","","","","","6","","","","","","","","","","",""
"null","","1235805","SARL_v6vxrt8tgj","msl000122","fixation","","","img/fixation.png","null","","","test","","","","","","","","","","","","","","","","","","","",""
"186","","1235996","SARL_v6vxrt8tgj","msl000122","freq","","","img/green_2bandit_b2.png","70","","70","test","1","","","circle","square","132","127","10","6","0.9763779527559056","","","","","","","","","",""
"null","","1236616","SARL_v6vxrt8tgj","msl000122","freq_resp","","","img/green_2bandit_b.png","70","img/green_2bandit_b.png","70","test","","","","","","","","","6","","","","","","","","","","",""
"null","","1236771","SARL_v6vxrt8tgj","msl000122","fixation","","","img/fixation.png","null","","","test","","","","","","","","","","","","","","","","","","","",""
"115","","1236889","SARL_v6vxrt8tgj","msl000122","freq","","","img/green_2bandit_b2.png","70","","70","test","1","","","circle","square","133","128","11","6","0.9765625","","","","","","","","","",""
"null","","1237580","SARL_v6vxrt8tgj","msl000122","freq_resp","","","img/green_2bandit_b.png","70","img/green_2bandit_b.png","70","test","","","","","","","","","6","","","","","","","","","","",""
"null","","1237735","SARL_v6vxrt8tgj","msl000122","fixation","","","img/fixation.png","null","","","test","","","","","","","","","","","","","","","","","","","",""
"73","","1237813","SARL_v6vxrt8tgj","msl000122","freq","","","img/green_2bandit_b2.png","70","","70","test","1","","","circle","square","134","129","12","6","0.9767441860465116","","","","","","","","","",""
"null","","1238544","SARL_v6vxrt8tgj","msl000122","freq_resp","","","img/green_2bandit_b.png","70","img/green_2bandit_b.png","70","test","","","","","","","","","6","","","","","","","","","","",""
"null","","1238701","SARL_v6vxrt8tgj","msl000122","fixation","","","img/fixation.png","null","","","test","","","","","","","","","","","","","","","","","","","",""
"56","","1238762","SARL_v6vxrt8tgj","msl000122","infreq","","","img/orange_2bandit_b2.png","70","","68","test","0","","","circle","square","135","130","13","6","0.9692307692307692","","","","","","","","","",""
"null","","1239511","SARL_v6vxrt8tgj","msl000122","infreq_resp","","","img/orange_2bandit_b.png","70","img/orange_2bandit_b.png","68","test","","","","","","","","","6","","","","","","","","","","",""
"null","","1239666","SARL_v6vxrt8tgj","msl000122","fixation","","","img/fixation.png","null","","","test","","","","","","","","","","","","","","","","","","","",""
"271","","1239942","SARL_v6vxrt8tgj","msl000122","freq","","","img/green_2bandit_b2.png","70","","70","test","1","","","circle","square","136","131","14","6","0.9694656488549618","","","","","","","","","",""
"null","","1240477","SARL_v6vxrt8tgj","msl000122","freq_resp","","","img/green_2bandit_b.png","70","img/green_2bandit_b.png","70","test","","","","","","","","","6","","","","","","","","","","",""
"null","","1240632","SARL_v6vxrt8tgj","msl000122","fixation","","","img/fixation.png","null","","","test","","","","","","","","","","","","","","","","","","","",""
"249","","1240887","SARL_v6vxrt8tgj","msl000122","freq","","","img/green_2bandit_b2.png","70","","70","test","1","","","circle","square","137","132","15","6","0.9696969696969697","","","","","","","","","",""
"null","","1241442","SARL_v6vxrt8tgj","msl000122","freq_resp","","","img/green_2bandit_b.png","70","img/green_2bandit_b.png","70","test","","","","","","","","","6","","","","","","","","","","",""
"null","","1241598","SARL_v6vxrt8tgj","msl000122","fixation","","","img/fixation.png","null","","","test","","","","","","","","","","","","","","","","","","","",""
"171","","1241773","SARL_v6vxrt8tgj","msl000122","freq","","","img/green_2bandit_b2.png","70","","70","test","1","","","circle","square","138","133","16","6","0.9699248120300752","","","","","","","","","",""
"null","","1242408","SARL_v6vxrt8tgj","msl000122","freq_resp","","","img/green_2bandit_b.png","70","img/green_2bandit_b.png","70","test","","","","","","","","","6","","","","","","","","","","",""
"null","","1242564","SARL_v6vxrt8tgj","msl000122","fixation","","","img/fixation.png","null","","","test","","","","","","","","","","","","","","","","","","","",""
"124","","1242693","SARL_v6vxrt8tgj","msl000122","freq","","","img/green_2bandit_b2.png","70","","70","test","1","","","circle","square","139","134","17","6","0.9701492537313433","","","","","","","","","",""
"null","","1243374","SARL_v6vxrt8tgj","msl000122","freq_resp","","","img/green_2bandit_b.png","70","img/green_2bandit_b.png","70","test","","","","","","","","","6","","","","","","","","","","",""
"null","","1243530","SARL_v6vxrt8tgj","msl000122","fixation","","","img/fixation.png","null","","","test","","","","","","","","","","","","","","","","","","","",""
"105","","1243640","SARL_v6vxrt8tgj","msl000122","freq","","","img/green_2bandit_b2.png","70","","70","test","1","","","circle","square","140","135","18","6","0.9703703703703703","","","","","","","","","",""
"null","","1244340","SARL_v6vxrt8tgj","msl000122","freq_resp","","","img/green_2bandit_b.png","70","img/green_2bandit_b.png","70","test","","","","","","","","","6","","","","","","","","","","",""
"null","","1244496","SARL_v6vxrt8tgj","msl000122","fixation","","","img/fixation.png","null","","","test","","","","","","","","","","","","","","","","","","","",""
"123","","1244624","SARL_v6vxrt8tgj","msl000122","freq","","","img/green_2bandit_b2.png","70","","70","test","1","","","circle","square","141","136","19","6","0.9705882352941176","","","","","","","","","",""
"null","","1245307","SARL_v6vxrt8tgj","msl000122","freq_resp","","","img/green_2bandit_b.png","70","img/green_2bandit_b.png","70","test","","","","","","","","","6","","","","","","","","","","",""
"null","","1245462","SARL_v6vxrt8tgj","msl000122","fixation","","","img/fixation.png","null","","","test","","","","","","","","","","","","","","","","","","","",""
"115","","1245582","SARL_v6vxrt8tgj","msl000122","infreq","","","img/orange_2bandit_b2.png","70","","68","test","0","","","circle","square","142","137","20","6","0.9635036496350365","","","","","","","","","",""
"null","","1246272","SARL_v6vxrt8tgj","msl000122","infreq_resp","","","img/orange_2bandit_b.png","70","img/orange_2bandit_b.png","68","test","","","","","","","","","6","","","","","","","","","","",""
"null","","1246428","SARL_v6vxrt8tgj","msl000122","fixation","","","img/fixation.png","null","","","test","","","","","","","","","","","","","","","","","","","",""
"449","","1246881","SARL_v6vxrt8tgj","msl000122","freq","","","img/green_2bandit_b2.png","70","","70","test","1","","","circle","square","143","138","21","6","0.9637681159420289","","","","","","","","","",""
"null","","1247238","SARL_v6vxrt8tgj","msl000122","freq_resp","","","img/green_2bandit_b.png","70","img/green_2bandit_b.png","70","test","","","","","","","","","6","","","","","","","","","","",""
"null","","1247393","SARL_v6vxrt8tgj","msl000122","fixation","","","img/fixation.png","null","","","test","","","","","","","","","","","","","","","","","","","",""
"216","","1247614","SARL_v6vxrt8tgj","msl000122","freq","","","img/green_2bandit_b2.png","70","","70","test","1","","","circle","square","144","139","22","6","0.9640287769784173","","","","","","","","","",""
"null","","1248204","SARL_v6vxrt8tgj","msl000122","freq_resp","","","img/green_2bandit_b.png","70","img/green_2bandit_b.png","70","test","","","","","","","","","6","","","","","","","","","","",""
"null","","1248359","SARL_v6vxrt8tgj","msl000122","fixation","","","img/fixation.png","null","","","test","","","","","","","","","","","","","","","","","","","",""
"140","","1248504","SARL_v6vxrt8tgj","msl000122","freq","","","img/green_2bandit_b2.png","70","","70","test","1","","","circle","square","145","140","23","6","0.9642857142857143","","","","","","","","","",""
"null","","1249171","SARL_v6vxrt8tgj","msl000122","freq_resp","","","img/green_2bandit_b.png","70","img/green_2bandit_b.png","70","test","","","","","","","","","6","","","","","","","","","","",""
"null","","1249326","SARL_v6vxrt8tgj","msl000122","fixation","","","img/fixation.png","null","","","test","","","","","","","","","","","","","","","","","","","",""
"71","","1249402","SARL_v6vxrt8tgj","msl000122","freq","","","img/green_2bandit_b2.png","70","","70","test","1","","","circle","square","146","141","24","6","0.9645390070921985","","","","","","","","","",""
"null","","1250137","SARL_v6vxrt8tgj","msl000122","freq_resp","","","img/green_2bandit_b.png","70","img/green_2bandit_b.png","70","test","","","","","","","","","6","","","","","","","","","","",""
"null","","1250293","SARL_v6vxrt8tgj","msl000122","fixation","","","img/fixation.png","null","","","test","","","","","","","","","","","","","","","","","","","",""
"47","","1250344","SARL_v6vxrt8tgj","msl000122","freq","","","img/green_2bandit_b2.png","70","","70","test","1","","","circle","square","147","142","25","6","0.9647887323943662","","","","","","","","","",""
"null","","1251103","SARL_v6vxrt8tgj","msl000122","freq_resp","","","img/green_2bandit_b.png","70","img/green_2bandit_b.png","70","test","","","","","","","","","6","","","","","","","","","","",""
"null","","1251259","SARL_v6vxrt8tgj","msl000122","fixation","","","img/fixation.png","null","","","test","","","","","","","","","","","","","","","","","","","",""
"85","","1251348","SARL_v6vxrt8tgj","msl000122","freq","","","img/green_2bandit_b2.png","70","","70","test","1","","","circle","square","148","143","26","6","0.965034965034965","","","","","","","","","",""
