"rt","responses","time_elapsed","subject","demoID","trialType","rlType","attType","stimulus","key_press","stim","corrresp","phase","corr","pracCounter","reward","bandOne","bandTwo","trialNum","attentionNum","attentionRunNum","blockNum","performance","bandChosen","circleVal","squareVal","coin","bandOneVal","bandTwoVal","pReward","shapeChosen","rlNum","badFlag"
"821330","{""Q0"":""msl000096""}","821358","SARL_v6nat83vj0","msl000096","","","","","","","","","","","","","","","","","","","","","","","","","","","",""
"65687","","887051","SARL_v6nat83vj0","msl000096","","","","","","","","","","","","","","","","","","","","","","","","","","","",""
"","","890005","SARL_v6nat83vj0","msl000096","fullscreen","fullscreen","fullscreen","","","","","","","","","","","","","","","","","","","","","","","","",""
"69963","","959973","SARL_v6nat83vj0","msl000096","","","","","","","","","","","","","","","","","","","","","","","","","","","",""
"null","","960781","SARL_v6nat83vj0","msl000096","freqPrac","","","img/orange_2bandit_a2.png","null","img/orange_2bandit_a2.png","70","prac","0","1","","","","","","","","","","","","","","","","","",""
"null","","961787","SARL_v6nat83vj0","msl000096","feedback","","","img/tooSlow.png","null","","na","prac","","","","","","","","","","","","","","","","","","","",""
"null","","961943","SARL_v6nat83vj0","msl000096","fixation","","","img/fixation.png","null","","","prac","","","","","","","","","","","","","","","","","","","",""
"583","","962532","SARL_v6nat83vj0","msl000096","infreqPrac","","","img/green_2bandit_a2.png","68","img/green_2bandit_a2.png","68","prac","1","1","","","","","","","","","","","","","","","","","",""
"583","","962754","SARL_v6nat83vj0","msl000096","infreqPrac_resp","","","img/green_2bandit_a.png","68","img/green_2bandit_a.png","68","prac","","","","","","","","","","","","","","","","","","","",""
"null","","962910","SARL_v6nat83vj0","msl000096","fixation","","","img/fixation.png","null","","","prac","","","","","","","","","","","","","","","","","","","",""
"337","","963252","SARL_v6nat83vj0","msl000096","freqPrac","","","img/orange_2bandit_a2.png","70","img/orange_2bandit_a2.png","70","prac","1","1","","","","","","","","","","","","","","","","","",""
"337","","963721","SARL_v6nat83vj0","msl000096","freqPrac_resp","","","img/orange_2bandit_a.png","70","img/orange_2bandit_a.png","70","prac","","","","","","","","","","","","","","","","","","","",""
"141","","963878","SARL_v6nat83vj0","msl000096","fixation","","","img/fixation.png","70","","","prac","","","","","","","","","","","","","","","","","","","",""
"472","","964356","SARL_v6nat83vj0","msl000096","infreqPrac","","","img/green_2bandit_a2.png","68","img/green_2bandit_a2.png","68","prac","1","1","","","","","","","","","","","","","","","","","",""
"472","","964689","SARL_v6nat83vj0","msl000096","infreqPrac_resp","","","img/green_2bandit_a.png","68","img/green_2bandit_a.png","68","prac","","","","","","","","","","","","","","","","","","","",""
"null","","964844","SARL_v6nat83vj0","msl000096","fixation","","","img/fixation.png","null","","","prac","","","","","","","","","","","","","","","","","","","",""
"421","","965269","SARL_v6nat83vj0","msl000096","infreqPrac","","","img/green_2bandit_a2.png","68","img/green_2bandit_a2.png","68","prac","1","1","","","","","","","","","","","","","","","","","",""
"421","","965654","SARL_v6nat83vj0","msl000096","infreqPrac_resp","","","img/green_2bandit_a.png","68","img/green_2bandit_a.png","68","prac","","","","","","","","","","","","","","","","","","","",""
"null","","965810","SARL_v6nat83vj0","msl000096","fixation","","","img/fixation.png","null","","","prac","","","","","","","","","","","","","","","","","","","",""
"307","","966122","SARL_v6nat83vj0","msl000096","infreqPrac","","","img/green_2bandit_a2.png","68","img/green_2bandit_a2.png","68","prac","1","1","","","","","","","","","","","","","","","","","",""
"307","","966620","SARL_v6nat83vj0","msl000096","infreqPrac_resp","","","img/green_2bandit_a.png","68","img/green_2bandit_a.png","68","prac","","","","","","","","","","","","","","","","","","","",""
"null","","966775","SARL_v6nat83vj0","msl000096","fixation","","","img/fixation.png","null","","","prac","","","","","","","","","","","","","","","","","","","",""
"471","","967252","SARL_v6nat83vj0","msl000096","freqPrac","","","img/orange_2bandit_a2.png","70","img/orange_2bandit_a2.png","70","prac","1","1","","","","","","","","","","","","","","","","","",""
"471","","967586","SARL_v6nat83vj0","msl000096","freqPrac_resp","","","img/orange_2bandit_a.png","70","img/orange_2bandit_a.png","70","prac","","","","","","","","","","","","","","","","","","","",""
"null","","967742","SARL_v6nat83vj0","msl000096","fixation","","","img/fixation.png","null","","","prac","","","","","","","","","","","","","","","","","","","",""
"409","","968155","SARL_v6nat83vj0","msl000096","infreqPrac","","","img/green_2bandit_a2.png","68","img/green_2bandit_a2.png","68","prac","1","1","","","","","","","","","","","","","","","","","",""
"409","","968552","SARL_v6nat83vj0","msl000096","infreqPrac_resp","","","img/green_2bandit_a.png","68","img/green_2bandit_a.png","68","prac","","","","","","","","","","","","","","","","","","","",""
"null","","968707","SARL_v6nat83vj0","msl000096","fixation","","","img/fixation.png","null","","","prac","","","","","","","","","","","","","","","","","","","",""
"374","","969087","SARL_v6nat83vj0","msl000096","freqPrac","","","img/orange_2bandit_a2.png","70","img/orange_2bandit_a2.png","70","prac","1","1","","","","","","","","","","","","","","","","","",""
"374","","969519","SARL_v6nat83vj0","msl000096","freqPrac_resp","","","img/orange_2bandit_a.png","70","img/orange_2bandit_a.png","70","prac","","","","","","","","","","","","","","","","","","","",""
"null","","969674","SARL_v6nat83vj0","msl000096","fixation","","","img/fixation.png","null","","","prac","","","","","","","","","","","","","","","","","","","",""
"414","","970093","SARL_v6nat83vj0","msl000096","freqPrac","","","img/orange_2bandit_a2.png","70","img/orange_2bandit_a2.png","70","prac","1","1","","","","","","","","","","","","","","","","","",""
"414","","970485","SARL_v6nat83vj0","msl000096","freqPrac_resp","","","img/orange_2bandit_a.png","70","img/orange_2bandit_a.png","70","prac","","","","","","","","","","","","","","","","","","","",""
"null","","970640","SARL_v6nat83vj0","msl000096","fixation","","","img/fixation.png","null","","","prac","","","","","","","","","","","","","","","","","","","",""
"71916","","1042561","SARL_v6nat83vj0","msl000096","","","","","","","","prac","","","","","","","","","","","","","","","","","","","",""
"1246","","1043809","SARL_v6nat83vj0","msl000096","rlPractice","","","img/black_2bandit_a2.png","74","img/black_2bandit_a2.png","","prac","","","75","","","","","","","","","","","","","","","","",""
"null","","1044566","SARL_v6nat83vj0","msl000096","feedback","","","img/boo_L_a.png","null","","na","prac","","","","","","","","","","","","","","","","","","","",""
"null","","1044723","SARL_v6nat83vj0","msl000096","fixation","","","img/fixation.png","null","","","prac","","","","","","","","","","","","","","","","","","","",""
"440","","1045168","SARL_v6nat83vj0","msl000096","rlPractice","","","img/black_2bandit_a2.png","75","img/black_2bandit_a2.png","","prac","","","75","","","","","","","","","","","","","","","","",""
"null","","1045923","SARL_v6nat83vj0","msl000096","feedback","","","img/yay_R_a.png","null","","na","prac","","","","","","","","","","","","","","","","","","","",""
"null","","1046078","SARL_v6nat83vj0","msl000096","fixation","","","img/fixation.png","null","","","prac","","","","","","","","","","","","","","","","","","","",""
"260","","1046342","SARL_v6nat83vj0","msl000096","rlPractice","","","img/black_2bandit_a2.png","75","img/black_2bandit_a2.png","","prac","","","75","","","","","","","","","","","","","","","","",""
"null","","1047098","SARL_v6nat83vj0","msl000096","feedback","","","img/yay_R_a.png","null","","na","prac","","","","","","","","","","","","","","","","","","","",""
"null","","1047254","SARL_v6nat83vj0","msl000096","fixation","","","img/fixation.png","null","","","prac","","","","","","","","","","","","","","","","","","","",""
"819","","1048078","SARL_v6nat83vj0","msl000096","rlPractice","","","img/black_2bandit_a2.png","75","img/black_2bandit_a2.png","","prac","","","75","","","","","","","","","","","","","","","","",""
"null","","1048833","SARL_v6nat83vj0","msl000096","feedback","","","img/yay_R_a.png","null","","na","prac","","","","","","","","","","","","","","","","","","","",""
"null","","1048989","SARL_v6nat83vj0","msl000096","fixation","","","img/fixation.png","null","","","prac","","","","","","","","","","","","","","","","","","","",""
"274","","1049268","SARL_v6nat83vj0","msl000096","rlPractice","","","img/black_2bandit_a2.png","75","img/black_2bandit_a2.png","","prac","","","75","","","","","","","","","","","","","","","","",""
"null","","1050024","SARL_v6nat83vj0","msl000096","feedback","","","img/yay_R_a.png","null","","na","prac","","","","","","","","","","","","","","","","","","","",""
"null","","1050180","SARL_v6nat83vj0","msl000096","fixation","","","img/fixation.png","null","","","prac","","","","","","","","","","","","","","","","","","","",""
"291","","1050477","SARL_v6nat83vj0","msl000096","rlPractice","","","img/black_2bandit_a2.png","75","img/black_2bandit_a2.png","","prac","","","75","","","","","","","","","","","","","","","","",""
"null","","1051232","SARL_v6nat83vj0","msl000096","feedback","","","img/yay_R_a.png","null","","na","prac","","","","","","","","","","","","","","","","","","","",""
"null","","1051388","SARL_v6nat83vj0","msl000096","fixation","","","img/fixation.png","null","","","prac","","","","","","","","","","","","","","","","","","","",""
"262","","1051654","SARL_v6nat83vj0","msl000096","rlPractice","","","img/black_2bandit_a2.png","75","img/black_2bandit_a2.png","","prac","","","75","","","","","","","","","","","","","","","","",""
"null","","1052409","SARL_v6nat83vj0","msl000096","feedback","","","img/yay_R_a.png","null","","na","prac","","","","","","","","","","","","","","","","","","","",""
"null","","1052564","SARL_v6nat83vj0","msl000096","fixation","","","img/fixation.png","null","","","prac","","","","","","","","","","","","","","","","","","","",""
"15589","","1068157","SARL_v6nat83vj0","msl000096","","","","","","","","prac","","","","","","","","","","","","","","","","","","","",""
"null","","1068963","SARL_v6nat83vj0","msl000096","mixAttFreqPrac","","","img/orange_2bandit_a2.png","null","img/orange_2bandit_a2.png","70","prac","","","","","","","","","","","","","","","","","","","",""
"1","","1069119","SARL_v6nat83vj0","msl000096","fixation","","","img/fixation.png","70","","","prac","","","","","","","","","","","","","","","","","","","",""
"438","","1069561","SARL_v6nat83vj0","msl000096","mixAttInfreqPrac","","","img/green_2bandit_a2.png","68","img/green_2bandit_a2.png","68","prac","","","","","","","","","","","","","","","","","","","",""
"438","","1069928","SARL_v6nat83vj0","msl000096","infreqPrac_resp","","","img/green_2bandit_a.png","68","img/orange_2bandit_a.png","68","prac","","","","","","","","","","","","","","","","","","","",""
"null","","1070083","SARL_v6nat83vj0","msl000096","fixation","","","img/fixation.png","null","","","prac","","","","","","","","","","","","","","","","","","","",""
"376","","1070465","SARL_v6nat83vj0","msl000096","mixAttInfreqPrac","","","img/green_2bandit_a2.png","68","img/green_2bandit_a2.png","68","prac","","","","","","","","","","","","","","","","","","","",""
"376","","1070895","SARL_v6nat83vj0","msl000096","infreqPrac_resp","","","img/green_2bandit_a.png","68","img/orange_2bandit_a.png","68","prac","","","","","","","","","","","","","","","","","","","",""
"null","","1071049","SARL_v6nat83vj0","msl000096","fixation","","","img/fixation.png","null","","","prac","","","","","","","","","","","","","","","","","","","",""
"353","","1071407","SARL_v6nat83vj0","msl000096","mixAttInfreqPrac","","","img/green_2bandit_a2.png","68","img/green_2bandit_a2.png","68","prac","","","","","","","","","","","","","","","","","","","",""
"353","","1071860","SARL_v6nat83vj0","msl000096","infreqPrac_resp","","","img/green_2bandit_a.png","68","img/orange_2bandit_a.png","68","prac","","","","","","","","","","","","","","","","","","","",""
"null","","1072015","SARL_v6nat83vj0","msl000096","fixation","","","img/fixation.png","null","","","prac","","","","","","","","","","","","","","","","","","","",""
"386","","1072405","SARL_v6nat83vj0","msl000096","mixAttFreqPrac","","","img/orange_2bandit_a2.png","70","img/orange_2bandit_a2.png","70","prac","","","","","","","","","","","","","","","","","","","",""
"386","","1072825","SARL_v6nat83vj0","msl000096","freqPrac_resp","","","img/orange_2bandit_a.png","70","img/orange_2bandit_a.png","70","prac","","","","","","","","","","","","","","","","","","","",""
"null","","1072981","SARL_v6nat83vj0","msl000096","fixation","","","img/fixation.png","null","","","prac","","","","","","","","","","","","","","","","","","","",""
"1070","","1074056","SARL_v6nat83vj0","msl000096","mixRLPractice","","","img/black_2bandit_a2.png","74","img/black_2bandit_a2.png","","prac","","","","","","","","","","","","","","","","","","","",""
"null","","1074814","SARL_v6nat83vj0","msl000096","feedback","","","img/boo_L_a.png","null","","na","prac","","","","","","","","","","","","","","","","","","","",""
"null","","1075618","SARL_v6nat83vj0","msl000096","mixAttFreqPrac","","","img/orange_2bandit_a2.png","null","img/orange_2bandit_a2.png","70","prac","","","","","","","","","","","","","","","","","","","",""
"42","","1075774","SARL_v6nat83vj0","msl000096","fixation","","","img/fixation.png","70","","","prac","","","","","","","","","","","","","","","","","","","",""
"435","","1076214","SARL_v6nat83vj0","msl000096","mixAttInfreqPrac","","","img/green_2bandit_a2.png","68","img/green_2bandit_a2.png","68","prac","","","","","","","","","","","","","","","","","","","",""
"435","","1076585","SARL_v6nat83vj0","msl000096","infreqPrac_resp","","","img/green_2bandit_a.png","68","img/orange_2bandit_a.png","68","prac","","","","","","","","","","","","","","","","","","","",""
"null","","1076740","SARL_v6nat83vj0","msl000096","fixation","","","img/fixation.png","null","","","prac","","","","","","","","","","","","","","","","","","","",""
"643","","1077388","SARL_v6nat83vj0","msl000096","mixAttFreqPrac","","","img/orange_2bandit_a2.png","70","img/orange_2bandit_a2.png","70","prac","","","","","","","","","","","","","","","","","","","",""
"643","","1077550","SARL_v6nat83vj0","msl000096","freqPrac_resp","","","img/orange_2bandit_a.png","70","img/orange_2bandit_a.png","70","prac","","","","","","","","","","","","","","","","","","","",""
"null","","1077706","SARL_v6nat83vj0","msl000096","fixation","","","img/fixation.png","null","","","prac","","","","","","","","","","","","","","","","","","","",""
"383","","1078094","SARL_v6nat83vj0","msl000096","mixAttFreqPrac","","","img/orange_2bandit_a2.png","70","img/orange_2bandit_a2.png","70","prac","","","","","","","","","","","","","","","","","","","",""
"383","","1078517","SARL_v6nat83vj0","msl000096","freqPrac_resp","","","img/orange_2bandit_a.png","70","img/orange_2bandit_a.png","70","prac","","","","","","","","","","","","","","","","","","","",""
"null","","1078672","SARL_v6nat83vj0","msl000096","fixation","","","img/fixation.png","null","","","prac","","","","","","","","","","","","","","","","","","","",""
"315","","1078993","SARL_v6nat83vj0","msl000096","mixAttInfreqPrac","","","img/green_2bandit_a2.png","70","img/green_2bandit_a2.png","68","prac","","","","","","","","","","","","","","","","","","","",""
"315","","1079482","SARL_v6nat83vj0","msl000096","infreqPrac_resp","","","img/green_2bandit_a.png","70","img/orange_2bandit_a.png","68","prac","","","","","","","","","","","","","","","","","","","",""
"null","","1079638","SARL_v6nat83vj0","msl000096","fixation","","","img/fixation.png","null","","","prac","","","","","","","","","","","","","","","","","","","",""
"651","","1080294","SARL_v6nat83vj0","msl000096","mixRLPractice","","","img/black_2bandit_a2.png","75","img/black_2bandit_a2.png","","prac","","","","","","","","","","","","","","","","","","","",""
"null","","1081048","SARL_v6nat83vj0","msl000096","feedback","","","img/yay_R_a.png","null","","na","prac","","","","","","","","","","","","","","","","","","","",""
"55592","","1136644","SARL_v6nat83vj0","msl000096","","","","","","","","prac","","","","","","","","","","","","","","","","","","","",""
"633","","1137283","SARL_v6nat83vj0","msl000096","freq","","","img/orange_2bandit_a2.png","70","","70","test","1","","","square","circle","1","1","1","1","1","","","","","","","","","",""
"null","","1137456","SARL_v6nat83vj0","msl000096","freq_resp","","","img/orange_2bandit_a.png","70","img/orange_2bandit_a.png","70","test","","","","","","","","","1","","","","","","","","","","",""
"null","","1137611","SARL_v6nat83vj0","msl000096","fixation","","","img/fixation.png","null","","","test","","","","","","","","","","","","","","","","","","","",""
"428","","1138044","SARL_v6nat83vj0","msl000096","freq","","","img/orange_2bandit_a2.png","70","","70","test","1","","","square","circle","2","2","2","1","1","","","","","","","","","",""
"null","","1138422","SARL_v6nat83vj0","msl000096","freq_resp","","","img/orange_2bandit_a.png","70","img/orange_2bandit_a.png","70","test","","","","","","","","","1","","","","","","","","","","",""
"null","","1138577","SARL_v6nat83vj0","msl000096","fixation","","","img/fixation.png","null","","","test","","","","","","","","","","","","","","","","","","","",""
"351","","1138933","SARL_v6nat83vj0","msl000096","freq","","","img/orange_2bandit_a2.png","70","","70","test","1","","","square","circle","3","3","3","1","1","","","","","","","","","",""
"null","","1139388","SARL_v6nat83vj0","msl000096","freq_resp","","","img/orange_2bandit_a.png","70","img/orange_2bandit_a.png","70","test","","","","","","","","","1","","","","","","","","","","",""
"null","","1139542","SARL_v6nat83vj0","msl000096","fixation","","","img/fixation.png","null","","","test","","","","","","","","","","","","","","","","","","","",""
"325","","1139871","SARL_v6nat83vj0","msl000096","freq","","","img/orange_2bandit_a2.png","70","","70","test","1","","","square","circle","4","4","4","1","1","","","","","","","","","",""
"null","","1140352","SARL_v6nat83vj0","msl000096","freq_resp","","","img/orange_2bandit_a.png","70","img/orange_2bandit_a.png","70","test","","","","","","","","","1","","","","","","","","","","",""
"null","","1140507","SARL_v6nat83vj0","msl000096","fixation","","","img/fixation.png","null","","","test","","","","","","","","","","","","","","","","","","","",""
"318","","1140830","SARL_v6nat83vj0","msl000096","freq","","","img/orange_2bandit_a2.png","70","","70","test","1","","","square","circle","5","5","5","1","1","","","","","","","","","",""
"null","","1141318","SARL_v6nat83vj0","msl000096","freq_resp","","","img/orange_2bandit_a.png","70","img/orange_2bandit_a.png","70","test","","","","","","","","","1","","","","","","","","","","",""
"null","","1141473","SARL_v6nat83vj0","msl000096","fixation","","","img/fixation.png","null","","","test","","","","","","","","","","","","","","","","","","","",""
"326","","1141803","SARL_v6nat83vj0","msl000096","freq","","","img/orange_2bandit_a2.png","70","","70","test","1","","","square","circle","6","6","6","1","1","","","","","","","","","",""
"null","","1142282","SARL_v6nat83vj0","msl000096","freq_resp","","","img/orange_2bandit_a.png","70","img/orange_2bandit_a.png","70","test","","","","","","","","","1","","","","","","","","","","",""
"null","","1142437","SARL_v6nat83vj0","msl000096","fixation","","","img/fixation.png","null","","","test","","","","","","","","","","","","","","","","","","","",""
"265","","1142706","SARL_v6nat83vj0","msl000096","freq","","","img/orange_2bandit_a2.png","70","","70","test","1","","","square","circle","7","7","7","1","1","","","","","","","","","",""
"null","","1143247","SARL_v6nat83vj0","msl000096","freq_resp","","","img/orange_2bandit_a.png","70","img/orange_2bandit_a.png","70","test","","","","","","","","","1","","","","","","","","","","",""
"null","","1143403","SARL_v6nat83vj0","msl000096","fixation","","","img/fixation.png","null","","","test","","","","","","","","","","","","","","","","","","","",""
"296","","1143705","SARL_v6nat83vj0","msl000096","freq","","","img/orange_2bandit_a2.png","70","","70","test","1","","","square","circle","8","8","8","1","1","","","","","","","","","",""
"null","","1144213","SARL_v6nat83vj0","msl000096","freq_resp","","","img/orange_2bandit_a.png","70","img/orange_2bandit_a.png","70","test","","","","","","","","","1","","","","","","","","","","",""
"null","","1144369","SARL_v6nat83vj0","msl000096","fixation","","","img/fixation.png","null","","","test","","","","","","","","","","","","","","","","","","","",""
"298","","1144670","SARL_v6nat83vj0","msl000096","freq","","","img/orange_2bandit_a2.png","70","","70","test","1","","","square","circle","9","9","9","1","1","","","","","","","","","",""
"null","","1145178","SARL_v6nat83vj0","msl000096","freq_resp","","","img/orange_2bandit_a.png","70","img/orange_2bandit_a.png","70","test","","","","","","","","","1","","","","","","","","","","",""
"null","","1145334","SARL_v6nat83vj0","msl000096","fixation","","","img/fixation.png","null","","","test","","","","","","","","","","","","","","","","","","","",""
"264","","1145601","SARL_v6nat83vj0","msl000096","freq","","","img/orange_2bandit_a2.png","70","","70","test","1","","","square","circle","10","10","10","1","1","","","","","","","","","",""
"null","","1146142","SARL_v6nat83vj0","msl000096","freq_resp","","","img/orange_2bandit_a.png","70","img/orange_2bandit_a.png","70","test","","","","","","","","","1","","","","","","","","","","",""
"null","","1146297","SARL_v6nat83vj0","msl000096","fixation","","","img/fixation.png","null","","","test","","","","","","","","","","","","","","","","","","","",""
"304","","1146607","SARL_v6nat83vj0","msl000096","freq","","","img/orange_2bandit_a2.png","70","","70","test","1","","","square","circle","11","11","11","1","1","","","","","","","","","",""
"null","","1147108","SARL_v6nat83vj0","msl000096","freq_resp","","","img/orange_2bandit_a.png","70","img/orange_2bandit_a.png","70","test","","","","","","","","","1","","","","","","","","","","",""
"null","","1147264","SARL_v6nat83vj0","msl000096","fixation","","","img/fixation.png","null","","","test","","","","","","","","","","","","","","","","","","","",""
"263","","1147533","SARL_v6nat83vj0","msl000096","freq","","","img/orange_2bandit_a2.png","70","","70","test","1","","","square","circle","12","12","12","1","1","","","","","","","","","",""
"null","","1148075","SARL_v6nat83vj0","msl000096","freq_resp","","","img/orange_2bandit_a.png","70","img/orange_2bandit_a.png","70","test","","","","","","","","","1","","","","","","","","","","",""
"null","","1148230","SARL_v6nat83vj0","msl000096","fixation","","","img/fixation.png","null","","","test","","","","","","","","","","","","","","","","","","","",""
"135","","1148370","SARL_v6nat83vj0","msl000096","freq","","","img/orange_2bandit_a2.png","70","","70","test","1","","","square","circle","13","13","13","1","1","","","","","","","","","",""
"null","","1149041","SARL_v6nat83vj0","msl000096","freq_resp","","","img/orange_2bandit_a.png","70","img/orange_2bandit_a.png","70","test","","","","","","","","","1","","","","","","","","","","",""
"null","","1149196","SARL_v6nat83vj0","msl000096","fixation","","","img/fixation.png","null","","","test","","","","","","","","","","","","","","","","","","","",""
"122","","1149324","SARL_v6nat83vj0","msl000096","freq","","","img/orange_2bandit_a2.png","70","","70","test","1","","","square","circle","14","14","14","1","1","","","","","","","","","",""
"null","","1150007","SARL_v6nat83vj0","msl000096","freq_resp","","","img/orange_2bandit_a.png","70","img/orange_2bandit_a.png","70","test","","","","","","","","","1","","","","","","","","","","",""
"null","","1150164","SARL_v6nat83vj0","msl000096","fixation","","","img/fixation.png","null","","","test","","","","","","","","","","","","","","","","","","","",""
"124","","1150293","SARL_v6nat83vj0","msl000096","freq","","","img/orange_2bandit_a2.png","70","","70","test","1","","","square","circle","15","15","15","1","1","","","","","","","","","",""
"null","","1150975","SARL_v6nat83vj0","msl000096","freq_resp","","","img/orange_2bandit_a.png","70","img/orange_2bandit_a.png","70","test","","","","","","","","","1","","","","","","","","","","",""
"null","","1151130","SARL_v6nat83vj0","msl000096","fixation","","","img/fixation.png","null","","","test","","","","","","","","","","","","","","","","","","","",""
"111","","1151246","SARL_v6nat83vj0","msl000096","infreq","","","img/green_2bandit_a2.png","70","","68","test","0","","","square","circle","16","16","16","1","0.9375","","","","","","","","","",""
"null","","1151940","SARL_v6nat83vj0","msl000096","infreq_resp","","","img/green_2bandit_a.png","70","img/green_2bandit_a.png","68","test","","","","","","","","","1","","","","","","","","","","",""
"null","","1152095","SARL_v6nat83vj0","msl000096","fixation","","","img/fixation.png","null","","","test","","","","","","","","","","","","","","","","","","","",""
"484","","1152585","SARL_v6nat83vj0","msl000096","freq","","","img/orange_2bandit_a2.png","70","","70","test","1","","","square","circle","17","17","17","1","0.9411764705882353","","","","","","","","","",""
"null","","1152907","SARL_v6nat83vj0","msl000096","freq_resp","","","img/orange_2bandit_a.png","70","img/orange_2bandit_a.png","70","test","","","","","","","","","1","","","","","","","","","","",""
"null","","1153061","SARL_v6nat83vj0","msl000096","fixation","","","img/fixation.png","null","","","test","","","","","","","","","","","","","","","","","","","",""
"421","","1153488","SARL_v6nat83vj0","msl000096","infreq","","","img/green_2bandit_a2.png","68","","68","test","1","","","square","circle","18","18","18","1","0.9444444444444444","","","","","","","","","",""
"null","","1153873","SARL_v6nat83vj0","msl000096","infreq_resp","","","img/green_2bandit_a.png","68","img/green_2bandit_a.png","68","test","","","","","","","","","1","","","","","","","","","","",""
"null","","1154028","SARL_v6nat83vj0","msl000096","fixation","","","img/fixation.png","null","","","test","","","","","","","","","","","","","","","","","","","",""
"509","","1154541","SARL_v6nat83vj0","msl000096","freq","","","img/orange_2bandit_a2.png","70","","70","test","1","","","square","circle","19","19","19","1","0.9473684210526315","","","","","","","","","",""
"null","","1154838","SARL_v6nat83vj0","msl000096","freq_resp","","","img/orange_2bandit_a.png","70","img/orange_2bandit_a.png","70","test","","","","","","","","","1","","","","","","","","","","",""
"null","","1154993","SARL_v6nat83vj0","msl000096","fixation","","","img/fixation.png","null","","","test","","","","","","","","","","","","","","","","","","","",""
"323","","1155321","SARL_v6nat83vj0","msl000096","freq","","","img/orange_2bandit_a2.png","70","","70","test","1","","","square","circle","20","20","20","1","0.95","","","","","","","","","",""
"null","","1155803","SARL_v6nat83vj0","msl000096","freq_resp","","","img/orange_2bandit_a.png","70","img/orange_2bandit_a.png","70","test","","","","","","","","","1","","","","","","","","","","",""
"null","","1155959","SARL_v6nat83vj0","msl000096","fixation","","","img/fixation.png","null","","","test","","","","","","","","","","","","","","","","","","","",""
"279","","1156244","SARL_v6nat83vj0","msl000096","freq","","","img/orange_2bandit_a2.png","70","","70","test","1","","","square","circle","21","21","21","1","0.9523809523809523","","","","","","","","","",""
"null","","1156769","SARL_v6nat83vj0","msl000096","freq_resp","","","img/orange_2bandit_a.png","70","img/orange_2bandit_a.png","70","test","","","","","","","","","1","","","","","","","","","","",""
"null","","1156925","SARL_v6nat83vj0","msl000096","fixation","","","img/fixation.png","null","","","test","","","","","","","","","","","","","","","","","","","",""
"339","","1157267","SARL_v6nat83vj0","msl000096","freq","","","img/orange_2bandit_a2.png","70","","70","test","1","","","square","circle","22","22","22","1","0.9545454545454546","","","","","","","","","",""
"null","","1157733","SARL_v6nat83vj0","msl000096","freq_resp","","","img/orange_2bandit_a.png","70","img/orange_2bandit_a.png","70","test","","","","","","","","","1","","","","","","","","","","",""
"null","","1157889","SARL_v6nat83vj0","msl000096","fixation","","","img/fixation.png","null","","","test","","","","","","","","","","","","","","","","","","","",""
"287","","1158180","SARL_v6nat83vj0","msl000096","freq","","","img/orange_2bandit_a2.png","70","","70","test","1","","","square","circle","23","23","23","1","0.9565217391304348","","","","","","","","","",""
"null","","1158699","SARL_v6nat83vj0","msl000096","freq_resp","","","img/orange_2bandit_a.png","70","img/orange_2bandit_a.png","70","test","","","","","","","","","1","","","","","","","","","","",""
"null","","1158853","SARL_v6nat83vj0","msl000096","fixation","","","img/fixation.png","null","","","test","","","","","","","","","","","","","","","","","","","",""
"311","","1159168","SARL_v6nat83vj0","msl000096","freq","","","img/orange_2bandit_a2.png","70","","70","test","1","","","square","circle","24","24","24","1","0.9583333333333334","","","","","","","","","",""
"null","","1159663","SARL_v6nat83vj0","msl000096","freq_resp","","","img/orange_2bandit_a.png","70","img/orange_2bandit_a.png","70","test","","","","","","","","","1","","","","","","","","","","",""
"null","","1159819","SARL_v6nat83vj0","msl000096","fixation","","","img/fixation.png","null","","","test","","","","","","","","","","","","","","","","","","","",""
"273","","1160096","SARL_v6nat83vj0","msl000096","freq","","","img/orange_2bandit_a2.png","70","","70","test","1","","","square","circle","25","25","25","1","0.96","","","","","","","","","",""
"null","","1160629","SARL_v6nat83vj0","msl000096","freq_resp","","","img/orange_2bandit_a.png","70","img/orange_2bandit_a.png","70","test","","","","","","","","","1","","","","","","","","","","",""
"null","","1160785","SARL_v6nat83vj0","msl000096","fixation","","","img/fixation.png","null","","","test","","","","","","","","","","","","","","","","","","","",""
"304","","1161094","SARL_v6nat83vj0","msl000096","freq","","","img/orange_2bandit_a2.png","70","","70","test","1","","","square","circle","26","26","26","1","0.9615384615384616","","","","","","","","","",""
"null","","1161595","SARL_v6nat83vj0","msl000096","freq_resp","","","img/orange_2bandit_a.png","70","img/orange_2bandit_a.png","70","test","","","","","","","","","1","","","","","","","","","","",""
"null","","1161751","SARL_v6nat83vj0","msl000096","fixation","","","img/fixation.png","null","","","test","","","","","","","","","","","","","","","","","","","",""
"322","","1162078","SARL_v6nat83vj0","msl000096","freq","","","img/orange_2bandit_a2.png","70","","70","test","1","","","square","circle","27","27","27","1","0.9629629629629629","","","","","","","","","",""
"null","","1162561","SARL_v6nat83vj0","msl000096","freq_resp","","","img/orange_2bandit_a.png","70","img/orange_2bandit_a.png","70","test","","","","","","","","","1","","","","","","","","","","",""
"null","","1162716","SARL_v6nat83vj0","msl000096","fixation","","","img/fixation.png","null","","","test","","","","","","","","","","","","","","","","","","","",""
"268","","1162988","SARL_v6nat83vj0","msl000096","freq","","","img/orange_2bandit_a2.png","70","","70","test","1","","","square","circle","28","28","28","1","0.9642857142857143","","","","","","","","","",""
"null","","1163525","SARL_v6nat83vj0","msl000096","freq_resp","","","img/orange_2bandit_a.png","70","img/orange_2bandit_a.png","70","test","","","","","","","","","1","","","","","","","","","","",""
"null","","1163680","SARL_v6nat83vj0","msl000096","fixation","","","img/fixation.png","null","","","test","","","","","","","","","","","","","","","","","","","",""
"297","","1163983","SARL_v6nat83vj0","msl000096","freq","","","img/orange_2bandit_a2.png","70","","70","test","1","","","square","circle","29","29","29","1","0.9655172413793104","","","","","","","","","",""
"null","","1164491","SARL_v6nat83vj0","msl000096","freq_resp","","","img/orange_2bandit_a.png","70","img/orange_2bandit_a.png","70","test","","","","","","","","","1","","","","","","","","","","",""
"null","","1164647","SARL_v6nat83vj0","msl000096","fixation","","","img/fixation.png","null","","","test","","","","","","","","","","","","","","","","","","","",""
"743","","1165395","SARL_v6nat83vj0","msl000096","rl","","","img/black_2bandit_a2.png","75","","0","test","","","1","square","circle","30","","0","1","","75","0.8","0.2","0.25646379530885444","0.2","0.8","0.8","circle","1","0"
"null","","1166151","SARL_v6nat83vj0","msl000096","feedback","","","img/yay_R_a.png","null","","na","test","","","","","","","","","1","","75","0.8","0.2","","","","0.8","","1",""
"427","","1166584","SARL_v6nat83vj0","msl000096","freq","","","img/orange_2bandit_a2.png","70","","70","test","1","","","square","circle","31","30","1","2","0.9666666666666667","","","","","","","","","",""
"null","","1166963","SARL_v6nat83vj0","msl000096","freq_resp","","","img/orange_2bandit_a.png","70","img/orange_2bandit_a.png","70","test","","","","","","","","","2","","","","","","","","","","",""
"null","","1167118","SARL_v6nat83vj0","msl000096","fixation","","","img/fixation.png","null","","","test","","","","","","","","","","","","","","","","","","","",""
"295","","1167418","SARL_v6nat83vj0","msl000096","freq","","","img/orange_2bandit_a2.png","70","","70","test","1","","","square","circle","32","31","2","2","0.967741935483871","","","","","","","","","",""
"null","","1167928","SARL_v6nat83vj0","msl000096","freq_resp","","","img/orange_2bandit_a.png","70","img/orange_2bandit_a.png","70","test","","","","","","","","","2","","","","","","","","","","",""
"null","","1168084","SARL_v6nat83vj0","msl000096","fixation","","","img/fixation.png","null","","","test","","","","","","","","","","","","","","","","","","","",""
"286","","1168375","SARL_v6nat83vj0","msl000096","freq","","","img/orange_2bandit_a2.png","70","","70","test","1","","","square","circle","33","32","3","2","0.96875","","","","","","","","","",""
"null","","1168894","SARL_v6nat83vj0","msl000096","freq_resp","","","img/orange_2bandit_a.png","70","img/orange_2bandit_a.png","70","test","","","","","","","","","2","","","","","","","","","","",""
"null","","1169049","SARL_v6nat83vj0","msl000096","fixation","","","img/fixation.png","null","","","test","","","","","","","","","","","","","","","","","","","",""
"123","","1169177","SARL_v6nat83vj0","msl000096","freq","","","img/orange_2bandit_a2.png","70","","70","test","1","","","square","circle","34","33","4","2","0.9696969696969697","","","","","","","","","",""
"null","","1169860","SARL_v6nat83vj0","msl000096","freq_resp","","","img/orange_2bandit_a.png","70","img/orange_2bandit_a.png","70","test","","","","","","","","","2","","","","","","","","","","",""
"null","","1170017","SARL_v6nat83vj0","msl000096","fixation","","","img/fixation.png","null","","","test","","","","","","","","","","","","","","","","","","","",""
"145","","1170166","SARL_v6nat83vj0","msl000096","freq","","","img/orange_2bandit_a2.png","70","","70","test","1","","","square","circle","35","34","5","2","0.9705882352941176","","","","","","","","","",""
"null","","1170826","SARL_v6nat83vj0","msl000096","freq_resp","","","img/orange_2bandit_a.png","70","img/orange_2bandit_a.png","70","test","","","","","","","","","2","","","","","","","","","","",""
"null","","1170981","SARL_v6nat83vj0","msl000096","fixation","","","img/fixation.png","null","","","test","","","","","","","","","","","","","","","","","","","",""
"261","","1171245","SARL_v6nat83vj0","msl000096","freq","","","img/orange_2bandit_a2.png","70","","70","test","1","","","square","circle","36","35","6","2","0.9714285714285714","","","","","","","","","",""
"null","","1171789","SARL_v6nat83vj0","msl000096","freq_resp","","","img/orange_2bandit_a.png","70","img/orange_2bandit_a.png","70","test","","","","","","","","","2","","","","","","","","","","",""
"null","","1171945","SARL_v6nat83vj0","msl000096","fixation","","","img/fixation.png","null","","","test","","","","","","","","","","","","","","","","","","","",""
"391","","1172339","SARL_v6nat83vj0","msl000096","infreq","","","img/green_2bandit_a2.png","68","","68","test","1","","","square","circle","37","36","7","2","0.9722222222222222","","","","","","","","","",""
"null","","1172755","SARL_v6nat83vj0","msl000096","infreq_resp","","","img/green_2bandit_a.png","68","img/green_2bandit_a.png","68","test","","","","","","","","","2","","","","","","","","","","",""
"null","","1172911","SARL_v6nat83vj0","msl000096","fixation","","","img/fixation.png","null","","","test","","","","","","","","","","","","","","","","","","","",""
"332","","1173246","SARL_v6nat83vj0","msl000096","freq","","","img/orange_2bandit_a2.png","70","","70","test","1","","","square","circle","38","37","8","2","0.972972972972973","","","","","","","","","",""
"null","","1173719","SARL_v6nat83vj0","msl000096","freq_resp","","","img/orange_2bandit_a.png","70","img/orange_2bandit_a.png","70","test","","","","","","","","","2","","","","","","","","","","",""
"null","","1173876","SARL_v6nat83vj0","msl000096","fixation","","","img/fixation.png","null","","","test","","","","","","","","","","","","","","","","","","","",""
"410","","1174290","SARL_v6nat83vj0","msl000096","infreq","","","img/green_2bandit_a2.png","68","","68","test","1","","","square","circle","39","38","9","2","0.9736842105263158","","","","","","","","","",""
"null","","1174685","SARL_v6nat83vj0","msl000096","infreq_resp","","","img/green_2bandit_a.png","68","img/green_2bandit_a.png","68","test","","","","","","","","","2","","","","","","","","","","",""
"null","","1174841","SARL_v6nat83vj0","msl000096","fixation","","","img/fixation.png","null","","","test","","","","","","","","","","","","","","","","","","","",""
"293","","1175140","SARL_v6nat83vj0","msl000096","freq","","","img/orange_2bandit_a2.png","70","","70","test","1","","","square","circle","40","39","10","2","0.9743589743589743","","","","","","","","","",""
"null","","1175652","SARL_v6nat83vj0","msl000096","freq_resp","","","img/orange_2bandit_a.png","70","img/orange_2bandit_a.png","70","test","","","","","","","","","2","","","","","","","","","","",""
"null","","1175807","SARL_v6nat83vj0","msl000096","fixation","","","img/fixation.png","null","","","test","","","","","","","","","","","","","","","","","","","",""
"271","","1176082","SARL_v6nat83vj0","msl000096","freq","","","img/orange_2bandit_a2.png","70","","70","test","1","","","square","circle","41","40","11","2","0.975","","","","","","","","","",""
"null","","1176616","SARL_v6nat83vj0","msl000096","freq_resp","","","img/orange_2bandit_a.png","70","img/orange_2bandit_a.png","70","test","","","","","","","","","2","","","","","","","","","","",""
"null","","1176772","SARL_v6nat83vj0","msl000096","fixation","","","img/fixation.png","null","","","test","","","","","","","","","","","","","","","","","","","",""
"87","","1176865","SARL_v6nat83vj0","msl000096","freq","","","img/orange_2bandit_a2.png","70","","70","test","1","","","square","circle","42","41","12","2","0.975609756097561","","","","","","","","","",""
"null","","1177582","SARL_v6nat83vj0","msl000096","freq_resp","","","img/orange_2bandit_a.png","70","img/orange_2bandit_a.png","70","test","","","","","","","","","2","","","","","","","","","","",""
"null","","1177738","SARL_v6nat83vj0","msl000096","fixation","","","img/fixation.png","null","","","test","","","","","","","","","","","","","","","","","","","",""
"100","","1177842","SARL_v6nat83vj0","msl000096","freq","","","img/orange_2bandit_a2.png","70","","70","test","1","","","square","circle","43","42","13","2","0.9761904761904762","","","","","","","","","",""
"null","","1178548","SARL_v6nat83vj0","msl000096","freq_resp","","","img/orange_2bandit_a.png","70","img/orange_2bandit_a.png","70","test","","","","","","","","","2","","","","","","","","","","",""
"null","","1178703","SARL_v6nat83vj0","msl000096","fixation","","","img/fixation.png","null","","","test","","","","","","","","","","","","","","","","","","","",""
"63","","1178771","SARL_v6nat83vj0","msl000096","freq","","","img/orange_2bandit_a2.png","70","","70","test","1","","","square","circle","44","43","14","2","0.9767441860465116","","","","","","","","","",""
"null","","1179513","SARL_v6nat83vj0","msl000096","freq_resp","","","img/orange_2bandit_a.png","70","img/orange_2bandit_a.png","70","test","","","","","","","","","2","","","","","","","","","","",""
"null","","1179667","SARL_v6nat83vj0","msl000096","fixation","","","img/fixation.png","null","","","test","","","","","","","","","","","","","","","","","","","",""
"82","","1179755","SARL_v6nat83vj0","msl000096","freq","","","img/orange_2bandit_a2.png","70","","70","test","1","","","square","circle","45","44","15","2","0.9772727272727273","","","","","","","","","",""
"null","","1180478","SARL_v6nat83vj0","msl000096","freq_resp","","","img/orange_2bandit_a.png","70","img/orange_2bandit_a.png","70","test","","","","","","","","","2","","","","","","","","","","",""
"null","","1180633","SARL_v6nat83vj0","msl000096","fixation","","","img/fixation.png","null","","","test","","","","","","","","","","","","","","","","","","","",""
"55","","1180692","SARL_v6nat83vj0","msl000096","freq","","","img/orange_2bandit_a2.png","70","","70","test","1","","","square","circle","46","45","16","2","0.9777777777777777","","","","","","","","","",""
"null","","1181443","SARL_v6nat83vj0","msl000096","freq_resp","","","img/orange_2bandit_a.png","70","img/orange_2bandit_a.png","70","test","","","","","","","","","2","","","","","","","","","","",""
"null","","1181599","SARL_v6nat83vj0","msl000096","fixation","","","img/fixation.png","null","","","test","","","","","","","","","","","","","","","","","","","",""
"253","","1181857","SARL_v6nat83vj0","msl000096","freq","","","img/orange_2bandit_a2.png","70","","70","test","1","","","square","circle","47","46","17","2","0.9782608695652174","","","","","","","","","",""
"null","","1182409","SARL_v6nat83vj0","msl000096","freq_resp","","","img/orange_2bandit_a.png","70","img/orange_2bandit_a.png","70","test","","","","","","","","","2","","","","","","","","","","",""
"null","","1182564","SARL_v6nat83vj0","msl000096","fixation","","","img/fixation.png","null","","","test","","","","","","","","","","","","","","","","","","","",""
"272","","1182841","SARL_v6nat83vj0","msl000096","freq","","","img/orange_2bandit_a2.png","70","","70","test","1","","","square","circle","48","47","18","2","0.9787234042553191","","","","","","","","","",""
"null","","1183374","SARL_v6nat83vj0","msl000096","freq_resp","","","img/orange_2bandit_a.png","70","img/orange_2bandit_a.png","70","test","","","","","","","","","2","","","","","","","","","","",""
"null","","1183530","SARL_v6nat83vj0","msl000096","fixation","","","img/fixation.png","null","","","test","","","","","","","","","","","","","","","","","","","",""
"290","","1183824","SARL_v6nat83vj0","msl000096","freq","","","img/orange_2bandit_a2.png","70","","70","test","1","","","square","circle","49","48","19","2","0.9791666666666666","","","","","","","","","",""
"null","","1184338","SARL_v6nat83vj0","msl000096","freq_resp","","","img/orange_2bandit_a.png","70","img/orange_2bandit_a.png","70","test","","","","","","","","","2","","","","","","","","","","",""
"null","","1184494","SARL_v6nat83vj0","msl000096","fixation","","","img/fixation.png","null","","","test","","","","","","","","","","","","","","","","","","","",""
"255","","1184753","SARL_v6nat83vj0","msl000096","freq","","","img/orange_2bandit_a2.png","70","","70","test","1","","","square","circle","50","49","20","2","0.9795918367346939","","","","","","","","","",""
"null","","1185304","SARL_v6nat83vj0","msl000096","freq_resp","","","img/orange_2bandit_a.png","70","img/orange_2bandit_a.png","70","test","","","","","","","","","2","","","","","","","","","","",""
"null","","1185459","SARL_v6nat83vj0","msl000096","fixation","","","img/fixation.png","null","","","test","","","","","","","","","","","","","","","","","","","",""
"135","","1185600","SARL_v6nat83vj0","msl000096","infreq","","","img/green_2bandit_a2.png","70","","68","test","0","","","square","circle","51","50","21","2","0.96","","","","","","","","","",""
"null","","1186270","SARL_v6nat83vj0","msl000096","infreq_resp","","","img/green_2bandit_a.png","70","img/green_2bandit_a.png","68","test","","","","","","","","","2","","","","","","","","","","",""
"null","","1186425","SARL_v6nat83vj0","msl000096","fixation","","","img/fixation.png","null","","","test","","","","","","","","","","","","","","","","","","","",""
"317","","1186746","SARL_v6nat83vj0","msl000096","freq","","","img/orange_2bandit_a2.png","70","","70","test","1","","","square","circle","52","51","22","2","0.9607843137254902","","","","","","","","","",""
"null","","1187234","SARL_v6nat83vj0","msl000096","freq_resp","","","img/orange_2bandit_a.png","70","img/orange_2bandit_a.png","70","test","","","","","","","","","2","","","","","","","","","","",""
"null","","1187389","SARL_v6nat83vj0","msl000096","fixation","","","img/fixation.png","null","","","test","","","","","","","","","","","","","","","","","","","",""
"108","","1187503","SARL_v6nat83vj0","msl000096","freq","","","img/orange_2bandit_a2.png","70","","70","test","1","","","square","circle","53","52","23","2","0.9615384615384616","","","","","","","","","",""
"null","","1188200","SARL_v6nat83vj0","msl000096","freq_resp","","","img/orange_2bandit_a.png","70","img/orange_2bandit_a.png","70","test","","","","","","","","","2","","","","","","","","","","",""
"null","","1188354","SARL_v6nat83vj0","msl000096","fixation","","","img/fixation.png","null","","","test","","","","","","","","","","","","","","","","","","","",""
"105","","1188465","SARL_v6nat83vj0","msl000096","freq","","","img/orange_2bandit_a2.png","70","","70","test","1","","","square","circle","54","53","24","2","0.9622641509433962","","","","","","","","","",""
"null","","1189166","SARL_v6nat83vj0","msl000096","freq_resp","","","img/orange_2bandit_a.png","70","img/orange_2bandit_a.png","70","test","","","","","","","","","2","","","","","","","","","","",""
"null","","1189321","SARL_v6nat83vj0","msl000096","fixation","","","img/fixation.png","null","","","test","","","","","","","","","","","","","","","","","","","",""
"103","","1189429","SARL_v6nat83vj0","msl000096","freq","","","img/orange_2bandit_a2.png","70","","70","test","1","","","square","circle","55","54","25","2","0.9629629629629629","","","","","","","","","",""
"null","","1190132","SARL_v6nat83vj0","msl000096","freq_resp","","","img/orange_2bandit_a.png","70","img/orange_2bandit_a.png","70","test","","","","","","","","","2","","","","","","","","","","",""
"null","","1190286","SARL_v6nat83vj0","msl000096","fixation","","","img/fixation.png","null","","","test","","","","","","","","","","","","","","","","","","","",""
"null","","1191092","SARL_v6nat83vj0","msl000096","freq","","","img/orange_2bandit_a2.png","null","","70","test","0","","","square","circle","56","55","26","2","0.9454545454545454","","","","","","","","","",""
"null","","1191247","SARL_v6nat83vj0","msl000096","fixation","","","img/fixation.png","null","","","test","","","","","","","","","","","","","","","","","","","",""
"115","","1191366","SARL_v6nat83vj0","msl000096","freq","","","img/orange_2bandit_a2.png","70","","70","test","1","","","square","circle","57","56","27","2","0.9464285714285714","","","","","","","","","",""
"null","","1192056","SARL_v6nat83vj0","msl000096","freq_resp","","","img/orange_2bandit_a.png","70","img/orange_2bandit_a.png","70","test","","","","","","","","","2","","","","","","","","","","",""
"null","","1192213","SARL_v6nat83vj0","msl000096","fixation","","","img/fixation.png","null","","","test","","","","","","","","","","","","","","","","","","","",""
"95","","1192313","SARL_v6nat83vj0","msl000096","freq","","","img/orange_2bandit_a2.png","70","","70","test","1","","","square","circle","58","57","28","2","0.9473684210526315","","","","","","","","","",""
"null","","1193023","SARL_v6nat83vj0","msl000096","freq_resp","","","img/orange_2bandit_a.png","70","img/orange_2bandit_a.png","70","test","","","","","","","","","2","","","","","","","","","","",""
"null","","1193179","SARL_v6nat83vj0","msl000096","fixation","","","img/fixation.png","null","","","test","","","","","","","","","","","","","","","","","","","",""
"149","","1193332","SARL_v6nat83vj0","msl000096","freq","","","img/orange_2bandit_a2.png","70","","70","test","1","","","square","circle","59","58","29","2","0.9482758620689655","","","","","","","","","",""
"null","","1193988","SARL_v6nat83vj0","msl000096","freq_resp","","","img/orange_2bandit_a.png","70","img/orange_2bandit_a.png","70","test","","","","","","","","","2","","","","","","","","","","",""
"null","","1194144","SARL_v6nat83vj0","msl000096","fixation","","","img/fixation.png","null","","","test","","","","","","","","","","","","","","","","","","","",""
"411","","1194561","SARL_v6nat83vj0","msl000096","rl","","","img/black_2bandit_a2.png","75","","0","test","","","1","square","circle","60","","0","2","","75","0.8","0.2","0.17256046068764697","0.2","0.8","0.8","circle","2","0"
"null","","1195316","SARL_v6nat83vj0","msl000096","feedback","","","img/yay_R_a.png","null","","na","test","","","","","","","","","2","","75","0.8","0.2","","","","0.8","","2",""
"283","","1195605","SARL_v6nat83vj0","msl000096","freq","","","img/orange_2bandit_a2.png","70","","70","test","1","","","square","circle","61","59","1","3","0.9491525423728814","","","","","","","","","",""
"null","","1196127","SARL_v6nat83vj0","msl000096","freq_resp","","","img/orange_2bandit_a.png","70","img/orange_2bandit_a.png","70","test","","","","","","","","","3","","","","","","","","","","",""
"null","","1196282","SARL_v6nat83vj0","msl000096","fixation","","","img/fixation.png","null","","","test","","","","","","","","","","","","","","","","","","","",""
"106","","1196393","SARL_v6nat83vj0","msl000096","infreq","","","img/green_2bandit_a2.png","70","","68","test","0","","","square","circle","62","60","2","3","0.9333333333333333","","","","","","","","","",""
"null","","1197093","SARL_v6nat83vj0","msl000096","infreq_resp","","","img/green_2bandit_a.png","70","img/green_2bandit_a.png","68","test","","","","","","","","","3","","","","","","","","","","",""
"null","","1197247","SARL_v6nat83vj0","msl000096","fixation","","","img/fixation.png","null","","","test","","","","","","","","","","","","","","","","","","","",""
"264","","1197516","SARL_v6nat83vj0","msl000096","freq","","","img/orange_2bandit_a2.png","70","","70","test","1","","","square","circle","63","61","3","3","0.9344262295081968","","","","","","","","","",""
"null","","1198058","SARL_v6nat83vj0","msl000096","freq_resp","","","img/orange_2bandit_a.png","70","img/orange_2bandit_a.png","70","test","","","","","","","","","3","","","","","","","","","","",""
"null","","1198213","SARL_v6nat83vj0","msl000096","fixation","","","img/fixation.png","null","","","test","","","","","","","","","","","","","","","","","","","",""
"163","","1198381","SARL_v6nat83vj0","msl000096","freq","","","img/orange_2bandit_a2.png","70","","70","test","1","","","square","circle","64","62","4","3","0.9354838709677419","","","","","","","","","",""
"null","","1199023","SARL_v6nat83vj0","msl000096","freq_resp","","","img/orange_2bandit_a.png","70","img/orange_2bandit_a.png","70","test","","","","","","","","","3","","","","","","","","","","",""
"null","","1199178","SARL_v6nat83vj0","msl000096","fixation","","","img/fixation.png","null","","","test","","","","","","","","","","","","","","","","","","","",""
"335","","1199518","SARL_v6nat83vj0","msl000096","freq","","","img/orange_2bandit_a2.png","70","","70","test","1","","","square","circle","65","63","5","3","0.9365079365079365","","","","","","","","","",""
"null","","1199989","SARL_v6nat83vj0","msl000096","freq_resp","","","img/orange_2bandit_a.png","70","img/orange_2bandit_a.png","70","test","","","","","","","","","3","","","","","","","","","","",""
"null","","1200144","SARL_v6nat83vj0","msl000096","fixation","","","img/fixation.png","null","","","test","","","","","","","","","","","","","","","","","","","",""
"303","","1200452","SARL_v6nat83vj0","msl000096","freq","","","img/orange_2bandit_a2.png","70","","70","test","1","","","square","circle","66","64","6","3","0.9375","","","","","","","","","",""
"null","","1200956","SARL_v6nat83vj0","msl000096","freq_resp","","","img/orange_2bandit_a.png","70","img/orange_2bandit_a.png","70","test","","","","","","","","","3","","","","","","","","","","",""
"null","","1201111","SARL_v6nat83vj0","msl000096","fixation","","","img/fixation.png","null","","","test","","","","","","","","","","","","","","","","","","","",""
"285","","1201401","SARL_v6nat83vj0","msl000096","freq","","","img/orange_2bandit_a2.png","70","","70","test","1","","","square","circle","67","65","7","3","0.9384615384615385","","","","","","","","","",""
"null","","1201921","SARL_v6nat83vj0","msl000096","freq_resp","","","img/orange_2bandit_a.png","70","img/orange_2bandit_a.png","70","test","","","","","","","","","3","","","","","","","","","","",""
"null","","1202077","SARL_v6nat83vj0","msl000096","fixation","","","img/fixation.png","null","","","test","","","","","","","","","","","","","","","","","","","",""
"151","","1202233","SARL_v6nat83vj0","msl000096","freq","","","img/orange_2bandit_a2.png","70","","70","test","1","","","square","circle","68","66","8","3","0.9393939393939394","","","","","","","","","",""
"null","","1202887","SARL_v6nat83vj0","msl000096","freq_resp","","","img/orange_2bandit_a.png","70","img/orange_2bandit_a.png","70","test","","","","","","","","","3","","","","","","","","","","",""
"null","","1203042","SARL_v6nat83vj0","msl000096","fixation","","","img/fixation.png","null","","","test","","","","","","","","","","","","","","","","","","","",""
"170","","1203217","SARL_v6nat83vj0","msl000096","infreq","","","img/green_2bandit_a2.png","70","","68","test","0","","","square","circle","69","67","9","3","0.9253731343283582","","","","","","","","","",""
"null","","1203853","SARL_v6nat83vj0","msl000096","infreq_resp","","","img/green_2bandit_a.png","70","img/green_2bandit_a.png","68","test","","","","","","","","","3","","","","","","","","","","",""
"null","","1204009","SARL_v6nat83vj0","msl000096","fixation","","","img/fixation.png","null","","","test","","","","","","","","","","","","","","","","","","","",""
"313","","1204326","SARL_v6nat83vj0","msl000096","freq","","","img/orange_2bandit_a2.png","70","","70","test","1","","","square","circle","70","68","10","3","0.9264705882352942","","","","","","","","","",""
"null","","1204818","SARL_v6nat83vj0","msl000096","freq_resp","","","img/orange_2bandit_a.png","70","img/orange_2bandit_a.png","70","test","","","","","","","","","3","","","","","","","","","","",""
"null","","1204972","SARL_v6nat83vj0","msl000096","fixation","","","img/fixation.png","null","","","test","","","","","","","","","","","","","","","","","","","",""
"257","","1205236","SARL_v6nat83vj0","msl000096","freq","","","img/orange_2bandit_a2.png","70","","70","test","1","","","square","circle","71","69","11","3","0.927536231884058","","","","","","","","","",""
"null","","1205784","SARL_v6nat83vj0","msl000096","freq_resp","","","img/orange_2bandit_a.png","70","img/orange_2bandit_a.png","70","test","","","","","","","","","3","","","","","","","","","","",""
"null","","1205939","SARL_v6nat83vj0","msl000096","fixation","","","img/fixation.png","null","","","test","","","","","","","","","","","","","","","","","","","",""
"481","","1206425","SARL_v6nat83vj0","msl000096","infreq","","","img/green_2bandit_a2.png","68","","68","test","1","","","square","circle","72","70","12","3","0.9285714285714286","","","","","","","","","",""
"null","","1206749","SARL_v6nat83vj0","msl000096","infreq_resp","","","img/green_2bandit_a.png","68","img/green_2bandit_a.png","68","test","","","","","","","","","3","","","","","","","","","","",""
"null","","1206905","SARL_v6nat83vj0","msl000096","fixation","","","img/fixation.png","null","","","test","","","","","","","","","","","","","","","","","","","",""
"319","","1207228","SARL_v6nat83vj0","msl000096","freq","","","img/orange_2bandit_a2.png","70","","70","test","1","","","square","circle","73","71","13","3","0.9295774647887324","","","","","","","","","",""
"null","","1207714","SARL_v6nat83vj0","msl000096","freq_resp","","","img/orange_2bandit_a.png","70","img/orange_2bandit_a.png","70","test","","","","","","","","","3","","","","","","","","","","",""
"null","","1207871","SARL_v6nat83vj0","msl000096","fixation","","","img/fixation.png","null","","","test","","","","","","","","","","","","","","","","","","","",""
"328","","1208204","SARL_v6nat83vj0","msl000096","freq","","","img/orange_2bandit_a2.png","70","","70","test","1","","","square","circle","74","72","14","3","0.9305555555555556","","","","","","","","","",""
"null","","1208681","SARL_v6nat83vj0","msl000096","freq_resp","","","img/orange_2bandit_a.png","70","img/orange_2bandit_a.png","70","test","","","","","","","","","3","","","","","","","","","","",""
"null","","1208837","SARL_v6nat83vj0","msl000096","fixation","","","img/fixation.png","null","","","test","","","","","","","","","","","","","","","","","","","",""
"254","","1209097","SARL_v6nat83vj0","msl000096","freq","","","img/orange_2bandit_a2.png","70","","70","test","1","","","square","circle","75","73","15","3","0.9315068493150684","","","","","","","","","",""
"null","","1209647","SARL_v6nat83vj0","msl000096","freq_resp","","","img/orange_2bandit_a.png","70","img/orange_2bandit_a.png","70","test","","","","","","","","","3","","","","","","","","","","",""
"null","","1209803","SARL_v6nat83vj0","msl000096","fixation","","","img/fixation.png","null","","","test","","","","","","","","","","","","","","","","","","","",""
"286","","1210094","SARL_v6nat83vj0","msl000096","freq","","","img/orange_2bandit_a2.png","70","","70","test","1","","","square","circle","76","74","16","3","0.9324324324324325","","","","","","","","","",""
"null","","1210613","SARL_v6nat83vj0","msl000096","freq_resp","","","img/orange_2bandit_a.png","70","img/orange_2bandit_a.png","70","test","","","","","","","","","3","","","","","","","","","","",""
"null","","1210768","SARL_v6nat83vj0","msl000096","fixation","","","img/fixation.png","null","","","test","","","","","","","","","","","","","","","","","","","",""
"418","","1211191","SARL_v6nat83vj0","msl000096","infreq","","","img/green_2bandit_a2.png","68","","68","test","1","","","square","circle","77","75","17","3","0.9333333333333333","","","","","","","","","",""
"null","","1211579","SARL_v6nat83vj0","msl000096","infreq_resp","","","img/green_2bandit_a.png","68","img/green_2bandit_a.png","68","test","","","","","","","","","3","","","","","","","","","","",""
"null","","1211734","SARL_v6nat83vj0","msl000096","fixation","","","img/fixation.png","null","","","test","","","","","","","","","","","","","","","","","","","",""
"300","","1212040","SARL_v6nat83vj0","msl000096","freq","","","img/orange_2bandit_a2.png","70","","70","test","1","","","square","circle","78","76","18","3","0.9342105263157895","","","","","","","","","",""
"null","","1212545","SARL_v6nat83vj0","msl000096","freq_resp","","","img/orange_2bandit_a.png","70","img/orange_2bandit_a.png","70","test","","","","","","","","","3","","","","","","","","","","",""
"null","","1212700","SARL_v6nat83vj0","msl000096","fixation","","","img/fixation.png","null","","","test","","","","","","","","","","","","","","","","","","","",""
"301","","1213006","SARL_v6nat83vj0","msl000096","freq","","","img/orange_2bandit_a2.png","70","","70","test","1","","","square","circle","79","77","19","3","0.935064935064935","","","","","","","","","",""
"null","","1213511","SARL_v6nat83vj0","msl000096","freq_resp","","","img/orange_2bandit_a.png","70","img/orange_2bandit_a.png","70","test","","","","","","","","","3","","","","","","","","","","",""
"null","","1213666","SARL_v6nat83vj0","msl000096","fixation","","","img/fixation.png","null","","","test","","","","","","","","","","","","","","","","","","","",""
"263","","1213933","SARL_v6nat83vj0","msl000096","freq","","","img/orange_2bandit_a2.png","70","","70","test","1","","","square","circle","80","78","20","3","0.9358974358974359","","","","","","","","","",""
"null","","1214476","SARL_v6nat83vj0","msl000096","freq_resp","","","img/orange_2bandit_a.png","70","img/orange_2bandit_a.png","70","test","","","","","","","","","3","","","","","","","","","","",""
"null","","1214632","SARL_v6nat83vj0","msl000096","fixation","","","img/fixation.png","null","","","test","","","","","","","","","","","","","","","","","","","",""
"351","","1214987","SARL_v6nat83vj0","msl000096","freq","","","img/orange_2bandit_a2.png","70","","70","test","1","","","square","circle","81","79","21","3","0.9367088607594937","","","","","","","","","",""
"null","","1215441","SARL_v6nat83vj0","msl000096","freq_resp","","","img/orange_2bandit_a.png","70","img/orange_2bandit_a.png","70","test","","","","","","","","","3","","","","","","","","","","",""
"null","","1215596","SARL_v6nat83vj0","msl000096","fixation","","","img/fixation.png","null","","","test","","","","","","","","","","","","","","","","","","","",""
"279","","1215880","SARL_v6nat83vj0","msl000096","freq","","","img/orange_2bandit_a2.png","70","","70","test","1","","","square","circle","82","80","22","3","0.9375","","","","","","","","","",""
"null","","1216406","SARL_v6nat83vj0","msl000096","freq_resp","","","img/orange_2bandit_a.png","70","img/orange_2bandit_a.png","70","test","","","","","","","","","3","","","","","","","","","","",""
"null","","1216562","SARL_v6nat83vj0","msl000096","fixation","","","img/fixation.png","null","","","test","","","","","","","","","","","","","","","","","","","",""
"293","","1216861","SARL_v6nat83vj0","msl000096","freq","","","img/orange_2bandit_a2.png","70","","70","test","1","","","square","circle","83","81","23","3","0.9382716049382716","","","","","","","","","",""
"null","","1217372","SARL_v6nat83vj0","msl000096","freq_resp","","","img/orange_2bandit_a.png","70","img/orange_2bandit_a.png","70","test","","","","","","","","","3","","","","","","","","","","",""
"null","","1217527","SARL_v6nat83vj0","msl000096","fixation","","","img/fixation.png","null","","","test","","","","","","","","","","","","","","","","","","","",""
"230","","1217763","SARL_v6nat83vj0","msl000096","freq","","","img/orange_2bandit_a2.png","70","","70","test","1","","","square","circle","84","82","24","3","0.9390243902439024","","","","","","","","","",""
"null","","1218338","SARL_v6nat83vj0","msl000096","freq_resp","","","img/orange_2bandit_a.png","70","img/orange_2bandit_a.png","70","test","","","","","","","","","3","","","","","","","","","","",""
"null","","1218492","SARL_v6nat83vj0","msl000096","fixation","","","img/fixation.png","null","","","test","","","","","","","","","","","","","","","","","","","",""
"308","","1218806","SARL_v6nat83vj0","msl000096","freq","","","img/orange_2bandit_a2.png","70","","70","test","1","","","square","circle","85","83","25","3","0.9397590361445783","","","","","","","","","",""
"null","","1219303","SARL_v6nat83vj0","msl000096","freq_resp","","","img/orange_2bandit_a.png","70","img/orange_2bandit_a.png","70","test","","","","","","","","","3","","","","","","","","","","",""
"null","","1219459","SARL_v6nat83vj0","msl000096","fixation","","","img/fixation.png","null","","","test","","","","","","","","","","","","","","","","","","","",""
"266","","1219730","SARL_v6nat83vj0","msl000096","freq","","","img/orange_2bandit_a2.png","70","","70","test","1","","","square","circle","86","84","26","3","0.9404761904761905","","","","","","","","","",""
"null","","1220270","SARL_v6nat83vj0","msl000096","freq_resp","","","img/orange_2bandit_a.png","70","img/orange_2bandit_a.png","70","test","","","","","","","","","3","","","","","","","","","","",""
"null","","1220425","SARL_v6nat83vj0","msl000096","fixation","","","img/fixation.png","null","","","test","","","","","","","","","","","","","","","","","","","",""
"278","","1220709","SARL_v6nat83vj0","msl000096","freq","","","img/orange_2bandit_a2.png","70","","70","test","1","","","square","circle","87","85","27","3","0.9411764705882353","","","","","","","","","",""
"null","","1221236","SARL_v6nat83vj0","msl000096","freq_resp","","","img/orange_2bandit_a.png","70","img/orange_2bandit_a.png","70","test","","","","","","","","","3","","","","","","","","","","",""
"null","","1221391","SARL_v6nat83vj0","msl000096","fixation","","","img/fixation.png","null","","","test","","","","","","","","","","","","","","","","","","","",""
"527","","1221922","SARL_v6nat83vj0","msl000096","rl","","","img/black_2bandit_a2.png","75","","0","test","","","1","square","circle","88","","0","3","","75","0.8","0.2","0.21277003440154751","0.2","0.8","0.8","circle","3","0"
"null","","1222678","SARL_v6nat83vj0","msl000096","feedback","","","img/yay_R_a.png","null","","na","test","","","","","","","","","3","","75","0.8","0.2","","","","0.8","","3",""
"395","","1223077","SARL_v6nat83vj0","msl000096","freq","","","img/orange_2bandit_a2.png","70","","70","test","1","","","square","circle","89","86","1","4","0.9418604651162791","","","","","","","","","",""
"null","","1223486","SARL_v6nat83vj0","msl000096","freq_resp","","","img/orange_2bandit_a.png","70","img/orange_2bandit_a.png","70","test","","","","","","","","","4","","","","","","","","","","",""
"null","","1223642","SARL_v6nat83vj0","msl000096","fixation","","","img/fixation.png","null","","","test","","","","","","","","","","","","","","","","","","","",""
"248","","1223895","SARL_v6nat83vj0","msl000096","freq","","","img/orange_2bandit_a2.png","70","","70","test","1","","","square","circle","90","87","2","4","0.9425287356321839","","","","","","","","","",""
"null","","1224454","SARL_v6nat83vj0","msl000096","freq_resp","","","img/orange_2bandit_a.png","70","img/orange_2bandit_a.png","70","test","","","","","","","","","4","","","","","","","","","","",""
"null","","1224609","SARL_v6nat83vj0","msl000096","fixation","","","img/fixation.png","null","","","test","","","","","","","","","","","","","","","","","","","",""
"204","","1224817","SARL_v6nat83vj0","msl000096","freq","","","img/orange_2bandit_a2.png","70","","70","test","1","","","square","circle","91","88","3","4","0.9431818181818182","","","","","","","","","",""
"null","","1225419","SARL_v6nat83vj0","msl000096","freq_resp","","","img/orange_2bandit_a.png","70","img/orange_2bandit_a.png","70","test","","","","","","","","","4","","","","","","","","","","",""
"null","","1225574","SARL_v6nat83vj0","msl000096","fixation","","","img/fixation.png","null","","","test","","","","","","","","","","","","","","","","","","","",""
"297","","1225876","SARL_v6nat83vj0","msl000096","freq","","","img/orange_2bandit_a2.png","70","","70","test","1","","","square","circle","92","89","4","4","0.9438202247191011","","","","","","","","","",""
"null","","1226384","SARL_v6nat83vj0","msl000096","freq_resp","","","img/orange_2bandit_a.png","70","img/orange_2bandit_a.png","70","test","","","","","","","","","4","","","","","","","","","","",""
"null","","1226539","SARL_v6nat83vj0","msl000096","fixation","","","img/fixation.png","null","","","test","","","","","","","","","","","","","","","","","","","",""
"264","","1226808","SARL_v6nat83vj0","msl000096","freq","","","img/orange_2bandit_a2.png","70","","70","test","1","","","square","circle","93","90","5","4","0.9444444444444444","","","","","","","","","",""
"null","","1227351","SARL_v6nat83vj0","msl000096","freq_resp","","","img/orange_2bandit_a.png","70","img/orange_2bandit_a.png","70","test","","","","","","","","","4","","","","","","","","","","",""
"null","","1227506","SARL_v6nat83vj0","msl000096","fixation","","","img/fixation.png","null","","","test","","","","","","","","","","","","","","","","","","","",""
"298","","1227810","SARL_v6nat83vj0","msl000096","freq","","","img/orange_2bandit_a2.png","70","","70","test","1","","","square","circle","94","91","6","4","0.945054945054945","","","","","","","","","",""
"null","","1228317","SARL_v6nat83vj0","msl000096","freq_resp","","","img/orange_2bandit_a.png","70","img/orange_2bandit_a.png","70","test","","","","","","","","","4","","","","","","","","","","",""
"null","","1228472","SARL_v6nat83vj0","msl000096","fixation","","","img/fixation.png","null","","","test","","","","","","","","","","","","","","","","","","","",""
"285","","1228761","SARL_v6nat83vj0","msl000096","freq","","","img/orange_2bandit_a2.png","70","","70","test","1","","","square","circle","95","92","7","4","0.9456521739130435","","","","","","","","","",""
"null","","1229281","SARL_v6nat83vj0","msl000096","freq_resp","","","img/orange_2bandit_a.png","70","img/orange_2bandit_a.png","70","test","","","","","","","","","4","","","","","","","","","","",""
"null","","1229436","SARL_v6nat83vj0","msl000096","fixation","","","img/fixation.png","null","","","test","","","","","","","","","","","","","","","","","","","",""
"309","","1229750","SARL_v6nat83vj0","msl000096","freq","","","img/orange_2bandit_a2.png","70","","70","test","1","","","square","circle","96","93","8","4","0.946236559139785","","","","","","","","","",""
"null","","1230246","SARL_v6nat83vj0","msl000096","freq_resp","","","img/orange_2bandit_a.png","70","img/orange_2bandit_a.png","70","test","","","","","","","","","4","","","","","","","","","","",""
"null","","1230400","SARL_v6nat83vj0","msl000096","fixation","","","img/fixation.png","null","","","test","","","","","","","","","","","","","","","","","","","",""
"227","","1230633","SARL_v6nat83vj0","msl000096","freq","","","img/orange_2bandit_a2.png","70","","70","test","1","","","square","circle","97","94","9","4","0.9468085106382979","","","","","","","","","",""
"null","","1231212","SARL_v6nat83vj0","msl000096","freq_resp","","","img/orange_2bandit_a.png","70","img/orange_2bandit_a.png","70","test","","","","","","","","","4","","","","","","","","","","",""
"null","","1231367","SARL_v6nat83vj0","msl000096","fixation","","","img/fixation.png","null","","","test","","","","","","","","","","","","","","","","","","","",""
"296","","1231668","SARL_v6nat83vj0","msl000096","freq","","","img/orange_2bandit_a2.png","70","","70","test","1","","","square","circle","98","95","10","4","0.9473684210526315","","","","","","","","","",""
"null","","1232178","SARL_v6nat83vj0","msl000096","freq_resp","","","img/orange_2bandit_a.png","70","img/orange_2bandit_a.png","70","test","","","","","","","","","4","","","","","","","","","","",""
"null","","1232332","SARL_v6nat83vj0","msl000096","fixation","","","img/fixation.png","null","","","test","","","","","","","","","","","","","","","","","","","",""
"254","","1232591","SARL_v6nat83vj0","msl000096","freq","","","img/orange_2bandit_a2.png","70","","70","test","1","","","square","circle","99","96","11","4","0.9479166666666666","","","","","","","","","",""
"null","","1233143","SARL_v6nat83vj0","msl000096","freq_resp","","","img/orange_2bandit_a.png","70","img/orange_2bandit_a.png","70","test","","","","","","","","","4","","","","","","","","","","",""
"null","","1233298","SARL_v6nat83vj0","msl000096","fixation","","","img/fixation.png","null","","","test","","","","","","","","","","","","","","","","","","","",""
"152","","1233454","SARL_v6nat83vj0","msl000096","freq","","","img/orange_2bandit_a2.png","70","","70","test","1","","","square","circle","100","97","12","4","0.9484536082474226","","","","","","","","","",""
"null","","1234107","SARL_v6nat83vj0","msl000096","freq_resp","","","img/orange_2bandit_a.png","70","img/orange_2bandit_a.png","70","test","","","","","","","","","4","","","","","","","","","","",""
"null","","1234263","SARL_v6nat83vj0","msl000096","fixation","","","img/fixation.png","null","","","test","","","","","","","","","","","","","","","","","","","",""
"258","","1234527","SARL_v6nat83vj0","msl000096","freq","","","img/orange_2bandit_a2.png","70","","70","test","1","","","square","circle","101","98","13","4","0.9489795918367347","","","","","","","","","",""
"null","","1235075","SARL_v6nat83vj0","msl000096","freq_resp","","","img/orange_2bandit_a.png","70","img/orange_2bandit_a.png","70","test","","","","","","","","","4","","","","","","","","","","",""
"null","","1235229","SARL_v6nat83vj0","msl000096","fixation","","","img/fixation.png","null","","","test","","","","","","","","","","","","","","","","","","","",""
"216","","1235450","SARL_v6nat83vj0","msl000096","freq","","","img/orange_2bandit_a2.png","70","","70","test","1","","","square","circle","102","99","14","4","0.9494949494949495","","","","","","","","","",""
"null","","1236040","SARL_v6nat83vj0","msl000096","freq_resp","","","img/orange_2bandit_a.png","70","img/orange_2bandit_a.png","70","test","","","","","","","","","4","","","","","","","","","","",""
"null","","1236195","SARL_v6nat83vj0","msl000096","fixation","","","img/fixation.png","null","","","test","","","","","","","","","","","","","","","","","","","",""
"234","","1236433","SARL_v6nat83vj0","msl000096","infreq","","","img/green_2bandit_a2.png","70","","68","test","0","","","square","circle","103","100","15","4","0.94","","","","","","","","","",""
"null","","1237005","SARL_v6nat83vj0","msl000096","infreq_resp","","","img/green_2bandit_a.png","70","img/green_2bandit_a.png","68","test","","","","","","","","","4","","","","","","","","","","",""
"null","","1237160","SARL_v6nat83vj0","msl000096","fixation","","","img/fixation.png","null","","","test","","","","","","","","","","","","","","","","","","","",""
"317","","1237482","SARL_v6nat83vj0","msl000096","freq","","","img/orange_2bandit_a2.png","70","","70","test","1","","","square","circle","104","101","16","4","0.9405940594059405","","","","","","","","","",""
"null","","1237970","SARL_v6nat83vj0","msl000096","freq_resp","","","img/orange_2bandit_a.png","70","img/orange_2bandit_a.png","70","test","","","","","","","","","4","","","","","","","","","","",""
"null","","1238125","SARL_v6nat83vj0","msl000096","fixation","","","img/fixation.png","null","","","test","","","","","","","","","","","","","","","","","","","",""
"154","","1238284","SARL_v6nat83vj0","msl000096","freq","","","img/orange_2bandit_a2.png","70","","70","test","1","","","square","circle","105","102","17","4","0.9411764705882353","","","","","","","","","",""
"null","","1238936","SARL_v6nat83vj0","msl000096","freq_resp","","","img/orange_2bandit_a.png","70","img/orange_2bandit_a.png","70","test","","","","","","","","","4","","","","","","","","","","",""
"null","","1239092","SARL_v6nat83vj0","msl000096","fixation","","","img/fixation.png","null","","","test","","","","","","","","","","","","","","","","","","","",""
"null","","1239896","SARL_v6nat83vj0","msl000096","freq","","","img/orange_2bandit_a2.png","null","","70","test","0","","","square","circle","106","103","18","4","0.9320388349514563","","","","","","","","","",""
"null","","1240051","SARL_v6nat83vj0","msl000096","fixation","","","img/fixation.png","null","","","test","","","","","","","","","","","","","","","","","","","",""
"237","","1240293","SARL_v6nat83vj0","msl000096","freq","","","img/orange_2bandit_a2.png","70","","70","test","1","","","square","circle","107","104","19","4","0.9326923076923077","","","","","","","","","",""
"null","","1240862","SARL_v6nat83vj0","msl000096","freq_resp","","","img/orange_2bandit_a.png","70","img/orange_2bandit_a.png","70","test","","","","","","","","","4","","","","","","","","","","",""
"null","","1241017","SARL_v6nat83vj0","msl000096","fixation","","","img/fixation.png","null","","","test","","","","","","","","","","","","","","","","","","","",""
"264","","1241286","SARL_v6nat83vj0","msl000096","freq","","","img/orange_2bandit_a2.png","70","","70","test","1","","","square","circle","108","105","20","4","0.9333333333333333","","","","","","","","","",""
"null","","1241827","SARL_v6nat83vj0","msl000096","freq_resp","","","img/orange_2bandit_a.png","70","img/orange_2bandit_a.png","70","test","","","","","","","","","4","","","","","","","","","","",""
"null","","1241983","SARL_v6nat83vj0","msl000096","fixation","","","img/fixation.png","null","","","test","","","","","","","","","","","","","","","","","","","",""
"221","","1242208","SARL_v6nat83vj0","msl000096","freq","","","img/orange_2bandit_a2.png","70","","70","test","1","","","square","circle","109","106","21","4","0.9339622641509434","","","","","","","","","",""
"null","","1242794","SARL_v6nat83vj0","msl000096","freq_resp","","","img/orange_2bandit_a.png","70","img/orange_2bandit_a.png","70","test","","","","","","","","","4","","","","","","","","","","",""
"null","","1242949","SARL_v6nat83vj0","msl000096","fixation","","","img/fixation.png","null","","","test","","","","","","","","","","","","","","","","","","","",""
"219","","1243172","SARL_v6nat83vj0","msl000096","freq","","","img/orange_2bandit_a2.png","70","","70","test","1","","","square","circle","110","107","22","4","0.9345794392523364","","","","","","","","","",""
"null","","1243758","SARL_v6nat83vj0","msl000096","freq_resp","","","img/orange_2bandit_a.png","70","img/orange_2bandit_a.png","70","test","","","","","","","","","4","","","","","","","","","","",""
"null","","1243914","SARL_v6nat83vj0","msl000096","fixation","","","img/fixation.png","null","","","test","","","","","","","","","","","","","","","","","","","",""
"268","","1244187","SARL_v6nat83vj0","msl000096","freq","","","img/orange_2bandit_a2.png","70","","70","test","1","","","square","circle","111","108","23","4","0.9351851851851852","","","","","","","","","",""
"null","","1244724","SARL_v6nat83vj0","msl000096","freq_resp","","","img/orange_2bandit_a.png","70","img/orange_2bandit_a.png","70","test","","","","","","","","","4","","","","","","","","","","",""
"null","","1244879","SARL_v6nat83vj0","msl000096","fixation","","","img/fixation.png","null","","","test","","","","","","","","","","","","","","","","","","","",""
"316","","1245200","SARL_v6nat83vj0","msl000096","freq","","","img/orange_2bandit_a2.png","70","","70","test","1","","","square","circle","112","109","24","4","0.9357798165137615","","","","","","","","","",""
"null","","1245690","SARL_v6nat83vj0","msl000096","freq_resp","","","img/orange_2bandit_a.png","70","img/orange_2bandit_a.png","70","test","","","","","","","","","4","","","","","","","","","","",""
"null","","1245845","SARL_v6nat83vj0","msl000096","fixation","","","img/fixation.png","null","","","test","","","","","","","","","","","","","","","","","","","",""
"301","","1246152","SARL_v6nat83vj0","msl000096","freq","","","img/orange_2bandit_a2.png","70","","70","test","1","","","square","circle","113","110","25","4","0.9363636363636364","","","","","","","","","",""
"null","","1246657","SARL_v6nat83vj0","msl000096","freq_resp","","","img/orange_2bandit_a.png","70","img/orange_2bandit_a.png","70","test","","","","","","","","","4","","","","","","","","","","",""
"null","","1246812","SARL_v6nat83vj0","msl000096","fixation","","","img/fixation.png","null","","","test","","","","","","","","","","","","","","","","","","","",""
"289","","1247107","SARL_v6nat83vj0","msl000096","freq","","","img/orange_2bandit_a2.png","70","","70","test","1","","","square","circle","114","111","26","4","0.9369369369369369","","","","","","","","","",""
"null","","1247623","SARL_v6nat83vj0","msl000096","freq_resp","","","img/orange_2bandit_a.png","70","img/orange_2bandit_a.png","70","test","","","","","","","","","4","","","","","","","","","","",""
"null","","1247778","SARL_v6nat83vj0","msl000096","fixation","","","img/fixation.png","null","","","test","","","","","","","","","","","","","","","","","","","",""
"196","","1247979","SARL_v6nat83vj0","msl000096","infreq","","","img/green_2bandit_a2.png","70","","68","test","0","","","square","circle","115","112","27","4","0.9285714285714286","","","","","","","","","",""
"null","","1248589","SARL_v6nat83vj0","msl000096","infreq_resp","","","img/green_2bandit_a.png","70","img/green_2bandit_a.png","68","test","","","","","","","","","4","","","","","","","","","","",""
"null","","1248743","SARL_v6nat83vj0","msl000096","fixation","","","img/fixation.png","null","","","test","","","","","","","","","","","","","","","","","","","",""
"70","","1248818","SARL_v6nat83vj0","msl000096","freq","","","img/orange_2bandit_a2.png","70","","70","test","1","","","square","circle","116","113","28","4","0.9292035398230089","","","","","","","","","",""
"null","","1249553","SARL_v6nat83vj0","msl000096","freq_resp","","","img/orange_2bandit_a.png","70","img/orange_2bandit_a.png","70","test","","","","","","","","","4","","","","","","","","","","",""
"null","","1249709","SARL_v6nat83vj0","msl000096","fixation","","","img/fixation.png","null","","","test","","","","","","","","","","","","","","","","","","","",""
"293","","1250007","SARL_v6nat83vj0","msl000096","freq","","","img/orange_2bandit_a2.png","70","","70","test","1","","","square","circle","117","114","29","4","0.9298245614035088","","","","","","","","","",""
"null","","1250520","SARL_v6nat83vj0","msl000096","freq_resp","","","img/orange_2bandit_a.png","70","img/orange_2bandit_a.png","70","test","","","","","","","","","4","","","","","","","","","","",""
"null","","1250676","SARL_v6nat83vj0","msl000096","fixation","","","img/fixation.png","null","","","test","","","","","","","","","","","","","","","","","","","",""
"616","","1251297","SARL_v6nat83vj0","msl000096","rl","","","img/black_2bandit_a2.png","75","","0","test","","","1","square","circle","118","","0","4","","75","0.8","0.2","0.05596365707896089","0.2","0.8","0.8","circle","4","0"
"null","","1252053","SARL_v6nat83vj0","msl000096","feedback","","","img/yay_R_a.png","null","","na","test","","","","","","","","","4","","75","0.8","0.2","","","","0.8","","4",""
"277","","1252334","SARL_v6nat83vj0","msl000096","freq","","","img/orange_2bandit_a2.png","70","","70","test","1","","","square","circle","119","115","1","5","0.9304347826086956","","","","","","","","","",""
"null","","1252863","SARL_v6nat83vj0","msl000096","freq_resp","","","img/orange_2bandit_a.png","70","img/orange_2bandit_a.png","70","test","","","","","","","","","5","","","","","","","","","","",""
"null","","1253018","SARL_v6nat83vj0","msl000096","fixation","","","img/fixation.png","null","","","test","","","","","","","","","","","","","","","","","","","",""
"274","","1253298","SARL_v6nat83vj0","msl000096","freq","","","img/orange_2bandit_a2.png","70","","70","test","1","","","square","circle","120","116","2","5","0.9310344827586207","","","","","","","","","",""
"null","","1253829","SARL_v6nat83vj0","msl000096","freq_resp","","","img/orange_2bandit_a.png","70","img/orange_2bandit_a.png","70","test","","","","","","","","","5","","","","","","","","","","",""
"null","","1253985","SARL_v6nat83vj0","msl000096","fixation","","","img/fixation.png","null","","","test","","","","","","","","","","","","","","","","","","","",""
"587","","1254577","SARL_v6nat83vj0","msl000096","infreq","","","img/green_2bandit_a2.png","70","","68","test","0","","","square","circle","121","117","3","5","0.9230769230769231","","","","","","","","","",""
"null","","1254796","SARL_v6nat83vj0","msl000096","infreq_resp","","","img/green_2bandit_a.png","70","img/green_2bandit_a.png","68","test","","","","","","","","","5","","","","","","","","","","",""
"null","","1254952","SARL_v6nat83vj0","msl000096","fixation","","","img/fixation.png","null","","","test","","","","","","","","","","","","","","","","","","","",""
"425","","1255381","SARL_v6nat83vj0","msl000096","freq","","","img/orange_2bandit_a2.png","70","","70","test","1","","","square","circle","122","118","4","5","0.923728813559322","","","","","","","","","",""
"null","","1255762","SARL_v6nat83vj0","msl000096","freq_resp","","","img/orange_2bandit_a.png","70","img/orange_2bandit_a.png","70","test","","","","","","","","","5","","","","","","","","","","",""
"null","","1255918","SARL_v6nat83vj0","msl000096","fixation","","","img/fixation.png","null","","","test","","","","","","","","","","","","","","","","","","","",""
"321","","1256243","SARL_v6nat83vj0","msl000096","freq","","","img/orange_2bandit_a2.png","70","","70","test","1","","","square","circle","123","119","5","5","0.9243697478991597","","","","","","","","","",""
"null","","1256727","SARL_v6nat83vj0","msl000096","freq_resp","","","img/orange_2bandit_a.png","70","img/orange_2bandit_a.png","70","test","","","","","","","","","5","","","","","","","","","","",""
"null","","1256883","SARL_v6nat83vj0","msl000096","fixation","","","img/fixation.png","null","","","test","","","","","","","","","","","","","","","","","","","",""
"300","","1257187","SARL_v6nat83vj0","msl000096","freq","","","img/orange_2bandit_a2.png","70","","70","test","1","","","square","circle","124","120","6","5","0.925","","","","","","","","","",""
"null","","1257692","SARL_v6nat83vj0","msl000096","freq_resp","","","img/orange_2bandit_a.png","70","img/orange_2bandit_a.png","70","test","","","","","","","","","5","","","","","","","","","","",""
"null","","1257847","SARL_v6nat83vj0","msl000096","fixation","","","img/fixation.png","null","","","test","","","","","","","","","","","","","","","","","","","",""
"312","","1258162","SARL_v6nat83vj0","msl000096","freq","","","img/orange_2bandit_a2.png","70","","70","test","1","","","square","circle","125","121","7","5","0.9256198347107438","","","","","","","","","",""
"null","","1258656","SARL_v6nat83vj0","msl000096","freq_resp","","","img/orange_2bandit_a.png","70","img/orange_2bandit_a.png","70","test","","","","","","","","","5","","","","","","","","","","",""
"null","","1258811","SARL_v6nat83vj0","msl000096","fixation","","","img/fixation.png","null","","","test","","","","","","","","","","","","","","","","","","","",""
"287","","1259104","SARL_v6nat83vj0","msl000096","freq","","","img/orange_2bandit_a2.png","70","","70","test","1","","","square","circle","126","122","8","5","0.9262295081967213","","","","","","","","","",""
"null","","1259622","SARL_v6nat83vj0","msl000096","freq_resp","","","img/orange_2bandit_a.png","70","img/orange_2bandit_a.png","70","test","","","","","","","","","5","","","","","","","","","","",""
"null","","1259777","SARL_v6nat83vj0","msl000096","fixation","","","img/fixation.png","null","","","test","","","","","","","","","","","","","","","","","","","",""
"421","","1260204","SARL_v6nat83vj0","msl000096","infreq","","","img/green_2bandit_a2.png","68","","68","test","1","","","square","circle","127","123","9","5","0.926829268292683","","","","","","","","","",""
"null","","1260589","SARL_v6nat83vj0","msl000096","infreq_resp","","","img/green_2bandit_a.png","68","img/green_2bandit_a.png","68","test","","","","","","","","","5","","","","","","","","","","",""
"null","","1260744","SARL_v6nat83vj0","msl000096","fixation","","","img/fixation.png","null","","","test","","","","","","","","","","","","","","","","","","","",""
"351","","1261101","SARL_v6nat83vj0","msl000096","freq","","","img/orange_2bandit_a2.png","70","","70","test","1","","","square","circle","128","124","10","5","0.9274193548387096","","","","","","","","","",""
"null","","1261554","SARL_v6nat83vj0","msl000096","freq_resp","","","img/orange_2bandit_a.png","70","img/orange_2bandit_a.png","70","test","","","","","","","","","5","","","","","","","","","","",""
"null","","1261709","SARL_v6nat83vj0","msl000096","fixation","","","img/fixation.png","null","","","test","","","","","","","","","","","","","","","","","","","",""
"414","","1262129","SARL_v6nat83vj0","msl000096","freq","","","img/orange_2bandit_a2.png","70","","70","test","1","","","square","circle","129","125","11","5","0.928","","","","","","","","","",""
"null","","1262520","SARL_v6nat83vj0","msl000096","freq_resp","","","img/orange_2bandit_a.png","70","img/orange_2bandit_a.png","70","test","","","","","","","","","5","","","","","","","","","","",""
"null","","1262675","SARL_v6nat83vj0","msl000096","fixation","","","img/fixation.png","null","","","test","","","","","","","","","","","","","","","","","","","",""
"320","","1263001","SARL_v6nat83vj0","msl000096","freq","","","img/orange_2bandit_a2.png","70","","70","test","1","","","square","circle","130","126","12","5","0.9285714285714286","","","","","","","","","",""
"null","","1263487","SARL_v6nat83vj0","msl000096","freq_resp","","","img/orange_2bandit_a.png","70","img/orange_2bandit_a.png","70","test","","","","","","","","","5","","","","","","","","","","",""
"null","","1263643","SARL_v6nat83vj0","msl000096","fixation","","","img/fixation.png","null","","","test","","","","","","","","","","","","","","","","","","","",""
"313","","1263959","SARL_v6nat83vj0","msl000096","freq","","","img/orange_2bandit_a2.png","70","","70","test","1","","","square","circle","131","127","13","5","0.9291338582677166","","","","","","","","","",""
"null","","1264453","SARL_v6nat83vj0","msl000096","freq_resp","","","img/orange_2bandit_a.png","70","img/orange_2bandit_a.png","70","test","","","","","","","","","5","","","","","","","","","","",""
"null","","1264608","SARL_v6nat83vj0","msl000096","fixation","","","img/fixation.png","null","","","test","","","","","","","","","","","","","","","","","","","",""
"332","","1264946","SARL_v6nat83vj0","msl000096","freq","","","img/orange_2bandit_a2.png","70","","70","test","1","","","square","circle","132","128","14","5","0.9296875","","","","","","","","","",""
"null","","1265419","SARL_v6nat83vj0","msl000096","freq_resp","","","img/orange_2bandit_a.png","70","img/orange_2bandit_a.png","70","test","","","","","","","","","5","","","","","","","","","","",""
"null","","1265575","SARL_v6nat83vj0","msl000096","fixation","","","img/fixation.png","null","","","test","","","","","","","","","","","","","","","","","","","",""
"328","","1265906","SARL_v6nat83vj0","msl000096","freq","","","img/orange_2bandit_a2.png","70","","70","test","1","","","square","circle","133","129","15","5","0.9302325581395349","","","","","","","","","",""
"null","","1266383","SARL_v6nat83vj0","msl000096","freq_resp","","","img/orange_2bandit_a.png","70","img/orange_2bandit_a.png","70","test","","","","","","","","","5","","","","","","","","","","",""
"null","","1266539","SARL_v6nat83vj0","msl000096","fixation","","","img/fixation.png","null","","","test","","","","","","","","","","","","","","","","","","","",""
"373","","1266916","SARL_v6nat83vj0","msl000096","freq","","","img/orange_2bandit_a2.png","70","","70","test","1","","","square","circle","134","130","16","5","0.9307692307692308","","","","","","","","","",""
"null","","1267348","SARL_v6nat83vj0","msl000096","freq_resp","","","img/orange_2bandit_a.png","70","img/orange_2bandit_a.png","70","test","","","","","","","","","5","","","","","","","","","","",""
"null","","1267504","SARL_v6nat83vj0","msl000096","fixation","","","img/fixation.png","null","","","test","","","","","","","","","","","","","","","","","","","",""
"294","","1267804","SARL_v6nat83vj0","msl000096","freq","","","img/orange_2bandit_a2.png","70","","70","test","1","","","square","circle","135","131","17","5","0.9312977099236641","","","","","","","","","",""
"null","","1268314","SARL_v6nat83vj0","msl000096","freq_resp","","","img/orange_2bandit_a.png","70","img/orange_2bandit_a.png","70","test","","","","","","","","","5","","","","","","","","","","",""
"null","","1268470","SARL_v6nat83vj0","msl000096","fixation","","","img/fixation.png","null","","","test","","","","","","","","","","","","","","","","","","","",""
"408","","1268884","SARL_v6nat83vj0","msl000096","infreq","","","img/green_2bandit_a2.png","68","","68","test","1","","","square","circle","136","132","18","5","0.9318181818181818","","","","","","","","","",""
"null","","1269282","SARL_v6nat83vj0","msl000096","infreq_resp","","","img/green_2bandit_a.png","68","img/green_2bandit_a.png","68","test","","","","","","","","","5","","","","","","","","","","",""
"null","","1269437","SARL_v6nat83vj0","msl000096","fixation","","","img/fixation.png","null","","","test","","","","","","","","","","","","","","","","","","","",""
"324","","1269765","SARL_v6nat83vj0","msl000096","freq","","","img/orange_2bandit_a2.png","70","","70","test","1","","","square","circle","137","133","19","5","0.9323308270676691","","","","","","","","","",""
"null","","1270247","SARL_v6nat83vj0","msl000096","freq_resp","","","img/orange_2bandit_a.png","70","img/orange_2bandit_a.png","70","test","","","","","","","","","5","","","","","","","","","","",""
"null","","1270402","SARL_v6nat83vj0","msl000096","fixation","","","img/fixation.png","null","","","test","","","","","","","","","","","","","","","","","","","",""
"278","","1270685","SARL_v6nat83vj0","msl000096","freq","","","img/orange_2bandit_a2.png","70","","70","test","1","","","square","circle","138","134","20","5","0.9328358208955224","","","","","","","","","",""
"null","","1271212","SARL_v6nat83vj0","msl000096","freq_resp","","","img/orange_2bandit_a.png","70","img/orange_2bandit_a.png","70","test","","","","","","","","","5","","","","","","","","","","",""
"null","","1271368","SARL_v6nat83vj0","msl000096","fixation","","","img/fixation.png","null","","","test","","","","","","","","","","","","","","","","","","","",""
"515","","1271888","SARL_v6nat83vj0","msl000096","rl","","","img/black_2bandit_a2.png","75","","0","test","","","1","square","circle","139","","0","5","","75","0.8","0.2","0.5600341793706072","0.2","0.8","0.8","circle","5","0"
"null","","1272644","SARL_v6nat83vj0","msl000096","feedback","","","img/yay_R_a.png","null","","na","test","","","","","","","","","5","","75","0.8","0.2","","","","0.8","","5",""
"311","","1272958","SARL_v6nat83vj0","msl000096","freq","","","img/orange_2bandit_a2.png","70","","70","test","1","","","square","circle","140","135","1","6","0.9333333333333333","","","","","","","","","",""
"null","","1273452","SARL_v6nat83vj0","msl000096","freq_resp","","","img/orange_2bandit_a.png","70","img/orange_2bandit_a.png","70","test","","","","","","","","","6","","","","","","","","","","",""
"null","","1273607","SARL_v6nat83vj0","msl000096","fixation","","","img/fixation.png","null","","","test","","","","","","","","","","","","","","","","","","","",""
"348","","1273960","SARL_v6nat83vj0","msl000096","freq","","","img/orange_2bandit_a2.png","70","","70","test","1","","","square","circle","141","136","2","6","0.9338235294117647","","","","","","","","","",""
"null","","1274418","SARL_v6nat83vj0","msl000096","freq_resp","","","img/orange_2bandit_a.png","70","img/orange_2bandit_a.png","70","test","","","","","","","","","6","","","","","","","","","","",""
"null","","1274574","SARL_v6nat83vj0","msl000096","fixation","","","img/fixation.png","null","","","test","","","","","","","","","","","","","","","","","","","",""
"381","","1274960","SARL_v6nat83vj0","msl000096","freq","","","img/orange_2bandit_a2.png","70","","70","test","1","","","square","circle","142","137","3","6","0.9343065693430657","","","","","","","","","",""
"null","","1275385","SARL_v6nat83vj0","msl000096","freq_resp","","","img/orange_2bandit_a.png","70","img/orange_2bandit_a.png","70","test","","","","","","","","","6","","","","","","","","","","",""
"null","","1275541","SARL_v6nat83vj0","msl000096","fixation","","","img/fixation.png","null","","","test","","","","","","","","","","","","","","","","","","","",""
"437","","1275984","SARL_v6nat83vj0","msl000096","infreq","","","img/green_2bandit_a2.png","68","","68","test","1","","","square","circle","143","138","4","6","0.9347826086956522","","","","","","","","","",""
"null","","1276352","SARL_v6nat83vj0","msl000096","infreq_resp","","","img/green_2bandit_a.png","68","img/green_2bandit_a.png","68","test","","","","","","","","","6","","","","","","","","","","",""
"null","","1276508","SARL_v6nat83vj0","msl000096","fixation","","","img/fixation.png","null","","","test","","","","","","","","","","","","","","","","","","","",""
"354","","1276866","SARL_v6nat83vj0","msl000096","freq","","","img/orange_2bandit_a2.png","70","","70","test","1","","","square","circle","144","139","5","6","0.935251798561151","","","","","","","","","",""
"null","","1277318","SARL_v6nat83vj0","msl000096","freq_resp","","","img/orange_2bandit_a.png","70","img/orange_2bandit_a.png","70","test","","","","","","","","","6","","","","","","","","","","",""
"null","","1277473","SARL_v6nat83vj0","msl000096","fixation","","","img/fixation.png","null","","","test","","","","","","","","","","","","","","","","","","","",""
"316","","1277794","SARL_v6nat83vj0","msl000096","freq","","","img/orange_2bandit_a2.png","70","","70","test","1","","","square","circle","145","140","6","6","0.9357142857142857","","","","","","","","","",""
"null","","1278283","SARL_v6nat83vj0","msl000096","freq_resp","","","img/orange_2bandit_a.png","70","img/orange_2bandit_a.png","70","test","","","","","","","","","6","","","","","","","","","","",""
"null","","1278438","SARL_v6nat83vj0","msl000096","fixation","","","img/fixation.png","null","","","test","","","","","","","","","","","","","","","","","","","",""
"300","","1278743","SARL_v6nat83vj0","msl000096","freq","","","img/orange_2bandit_a2.png","70","","70","test","1","","","square","circle","146","141","7","6","0.9361702127659575","","","","","","","","","",""
"null","","1279248","SARL_v6nat83vj0","msl000096","freq_resp","","","img/orange_2bandit_a.png","70","img/orange_2bandit_a.png","70","test","","","","","","","","","6","","","","","","","","","","",""
"null","","1279404","SARL_v6nat83vj0","msl000096","fixation","","","img/fixation.png","null","","","test","","","","","","","","","","","","","","","","","","","",""
"336","","1279745","SARL_v6nat83vj0","msl000096","freq","","","img/orange_2bandit_a2.png","70","","70","test","1","","","square","circle","147","142","8","6","0.9366197183098591","","","","","","","","","",""
"null","","1280214","SARL_v6nat83vj0","msl000096","freq_resp","","","img/orange_2bandit_a.png","70","img/orange_2bandit_a.png","70","test","","","","","","","","","6","","","","","","","","","","",""
"null","","1280370","SARL_v6nat83vj0","msl000096","fixation","","","img/fixation.png","null","","","test","","","","","","","","","","","","","","","","","","","",""
"310","","1280684","SARL_v6nat83vj0","msl000096","freq","","","img/orange_2bandit_a2.png","70","","70","test","1","","","square","circle","148","143","9","6","0.9370629370629371","","","","","","","","","",""
"null","","1281179","SARL_v6nat83vj0","msl000096","freq_resp","","","img/orange_2bandit_a.png","70","img/orange_2bandit_a.png","70","test","","","","","","","","","6","","","","","","","","","","",""
