"rt","responses","time_elapsed","subject","demoID","trialType","rlType","attType","stimulus","key_press","stim","corrresp","phase","corr","pracCounter","reward","bandOne","bandTwo","trialNum","attentionNum","attentionRunNum","blockNum","performance","bandChosen","circleVal","squareVal","coin","bandOneVal","bandTwoVal","pReward","shapeChosen","rlNum","badFlag"
"758885","{""Q0"":""msl000120""}","758913","SARL_v6n4gu2b5u","msl000120","","","","","","","","","","","","","","","","","","","","","","","","","","","",""
"1994","","760913","SARL_v6n4gu2b5u","msl000120","","","","","","","","","","","","","","","","","","","","","","","","","","","",""
"","","762756","SARL_v6n4gu2b5u","msl000120","fullscreen","fullscreen","fullscreen","","","","","","","","","","","","","","","","","","","","","","","","",""
"96734","","859495","SARL_v6n4gu2b5u","msl000120","","","","","","","","","","","","","","","","","","","","","","","","","","","",""
"null","","860302","SARL_v6n4gu2b5u","msl000120","freqPrac","","","img/green_2bandit_a2.png","null","img/green_2bandit_a2.png","70","prac","0","1","","","","","","","","","","","","","","","","","",""
"null","","861309","SARL_v6n4gu2b5u","msl000120","feedback","","","img/tooSlow.png","null","","na","prac","","","","","","","","","","","","","","","","","","","",""
"null","","861463","SARL_v6n4gu2b5u","msl000120","fixation","","","img/fixation.png","null","","","prac","","","","","","","","","","","","","","","","","","","",""
"null","","862269","SARL_v6n4gu2b5u","msl000120","infreqPrac","","","img/orange_2bandit_a2.png","null","img/orange_2bandit_a2.png","68","prac","0","2","","","","","","","","","","","","","","","","","",""
"null","","863274","SARL_v6n4gu2b5u","msl000120","feedback","","","img/tooSlow.png","null","","na","prac","","","","","","","","","","","","","","","","","","","",""
"null","","863430","SARL_v6n4gu2b5u","msl000120","fixation","","","img/fixation.png","null","","","prac","","","","","","","","","","","","","","","","","","","",""
"null","","864236","SARL_v6n4gu2b5u","msl000120","freqPrac","","","img/green_2bandit_a2.png","null","img/green_2bandit_a2.png","70","prac","0","3","","","","","","","","","","","","","","","","","",""
"null","","865241","SARL_v6n4gu2b5u","msl000120","feedback","","","img/tooSlow.png","null","","na","prac","","","","","","","","","","","","","","","","","","","",""
"null","","865395","SARL_v6n4gu2b5u","msl000120","fixation","","","img/fixation.png","null","","","prac","","","","","","","","","","","","","","","","","","","",""
"393","","865794","SARL_v6n4gu2b5u","msl000120","infreqPrac","","","img/orange_2bandit_a2.png","68","img/orange_2bandit_a2.png","68","prac","1","3","","","","","","","","","","","","","","","","","",""
"393","","866208","SARL_v6n4gu2b5u","msl000120","infreqPrac_resp","","","img/orange_2bandit_a.png","68","img/orange_2bandit_a.png","68","prac","","","","","","","","","","","","","","","","","","","",""
"null","","866363","SARL_v6n4gu2b5u","msl000120","fixation","","","img/fixation.png","null","","","prac","","","","","","","","","","","","","","","","","","","",""
"344","","866712","SARL_v6n4gu2b5u","msl000120","infreqPrac","","","img/orange_2bandit_a2.png","68","img/orange_2bandit_a2.png","68","prac","1","3","","","","","","","","","","","","","","","","","",""
"344","","867174","SARL_v6n4gu2b5u","msl000120","infreqPrac_resp","","","img/orange_2bandit_a.png","68","img/orange_2bandit_a.png","68","prac","","","","","","","","","","","","","","","","","","","",""
"null","","867328","SARL_v6n4gu2b5u","msl000120","fixation","","","img/fixation.png","null","","","prac","","","","","","","","","","","","","","","","","","","",""
"281","","867615","SARL_v6n4gu2b5u","msl000120","infreqPrac","","","img/orange_2bandit_a2.png","68","img/orange_2bandit_a2.png","68","prac","1","3","","","","","","","","","","","","","","","","","",""
"281","","868140","SARL_v6n4gu2b5u","msl000120","infreqPrac_resp","","","img/orange_2bandit_a.png","68","img/orange_2bandit_a.png","68","prac","","","","","","","","","","","","","","","","","","","",""
"null","","868295","SARL_v6n4gu2b5u","msl000120","fixation","","","img/fixation.png","null","","","prac","","","","","","","","","","","","","","","","","","","",""
"203","","868503","SARL_v6n4gu2b5u","msl000120","freqPrac","","","img/green_2bandit_a2.png","68","img/green_2bandit_a2.png","70","prac","0","4","","","","","","","","","","","","","","","","","",""
"203","","869105","SARL_v6n4gu2b5u","msl000120","freqPrac_resp","","","img/green_2bandit_a.png","68","img/green_2bandit_a.png","70","prac","","","","","","","","","","","","","","","","","","","",""
"null","","870111","SARL_v6n4gu2b5u","msl000120","feedback","","","img/wrongKey.png","null","","na","prac","","","","","","","","","","","","","","","","","","","",""
"null","","870267","SARL_v6n4gu2b5u","msl000120","fixation","","","img/fixation.png","null","","","prac","","","","","","","","","","","","","","","","","","","",""
"519","","870792","SARL_v6n4gu2b5u","msl000120","infreqPrac","","","img/orange_2bandit_a2.png","68","img/orange_2bandit_a2.png","68","prac","1","4","","","","","","","","","","","","","","","","","",""
"519","","871079","SARL_v6n4gu2b5u","msl000120","infreqPrac_resp","","","img/orange_2bandit_a.png","68","img/orange_2bandit_a.png","68","prac","","","","","","","","","","","","","","","","","","","",""
"null","","871235","SARL_v6n4gu2b5u","msl000120","fixation","","","img/fixation.png","null","","","prac","","","","","","","","","","","","","","","","","","","",""
"480","","871720","SARL_v6n4gu2b5u","msl000120","freqPrac","","","img/green_2bandit_a2.png","70","img/green_2bandit_a2.png","70","prac","1","4","","","","","","","","","","","","","","","","","",""
"480","","872045","SARL_v6n4gu2b5u","msl000120","freqPrac_resp","","","img/green_2bandit_a.png","70","img/green_2bandit_a.png","70","prac","","","","","","","","","","","","","","","","","","","",""
"null","","872201","SARL_v6n4gu2b5u","msl000120","fixation","","","img/fixation.png","null","","","prac","","","","","","","","","","","","","","","","","","","",""
"370","","872575","SARL_v6n4gu2b5u","msl000120","freqPrac","","","img/green_2bandit_a2.png","70","img/green_2bandit_a2.png","70","prac","1","4","","","","","","","","","","","","","","","","","",""
"370","","873011","SARL_v6n4gu2b5u","msl000120","freqPrac_resp","","","img/green_2bandit_a.png","70","img/green_2bandit_a.png","70","prac","","","","","","","","","","","","","","","","","","","",""
"null","","873167","SARL_v6n4gu2b5u","msl000120","fixation","","","img/fixation.png","null","","","prac","","","","","","","","","","","","","","","","","","","",""
"94048","","967220","SARL_v6n4gu2b5u","msl000120","","","","","","","","prac","","","","","","","","","","","","","","","","","","","",""
"614","","967839","SARL_v6n4gu2b5u","msl000120","rlPractice","","","img/black_2bandit_a2.png","74","img/black_2bandit_a2.png","","prac","","","75","","","","","","","","","","","","","","","","",""
"null","","968594","SARL_v6n4gu2b5u","msl000120","feedback","","","img/boo_L_a.png","null","","na","prac","","","","","","","","","","","","","","","","","","","",""
"null","","968750","SARL_v6n4gu2b5u","msl000120","fixation","","","img/fixation.png","null","","","prac","","","","","","","","","","","","","","","","","","","",""
"1014","","969770","SARL_v6n4gu2b5u","msl000120","rlPractice","","","img/black_2bandit_a2.png","75","img/black_2bandit_a2.png","","prac","","","75","","","","","","","","","","","","","","","","",""
"null","","970525","SARL_v6n4gu2b5u","msl000120","feedback","","","img/yay_R_a.png","null","","na","prac","","","","","","","","","","","","","","","","","","","",""
"null","","970679","SARL_v6n4gu2b5u","msl000120","fixation","","","img/fixation.png","null","","","prac","","","","","","","","","","","","","","","","","","","",""
"656","","971339","SARL_v6n4gu2b5u","msl000120","rlPractice","","","img/black_2bandit_a2.png","75","img/black_2bandit_a2.png","","prac","","","75","","","","","","","","","","","","","","","","",""
"null","","972095","SARL_v6n4gu2b5u","msl000120","feedback","","","img/yay_R_a.png","null","","na","prac","","","","","","","","","","","","","","","","","","","",""
"null","","972250","SARL_v6n4gu2b5u","msl000120","fixation","","","img/fixation.png","null","","","prac","","","","","","","","","","","","","","","","","","","",""
"432","","972687","SARL_v6n4gu2b5u","msl000120","rlPractice","","","img/black_2bandit_a2.png","75","img/black_2bandit_a2.png","","prac","","","75","","","","","","","","","","","","","","","","",""
"null","","973442","SARL_v6n4gu2b5u","msl000120","feedback","","","img/yay_R_a.png","null","","na","prac","","","","","","","","","","","","","","","","","","","",""
"null","","973597","SARL_v6n4gu2b5u","msl000120","fixation","","","img/fixation.png","null","","","prac","","","","","","","","","","","","","","","","","","","",""
"459","","974061","SARL_v6n4gu2b5u","msl000120","rlPractice","","","img/black_2bandit_a2.png","75","img/black_2bandit_a2.png","","prac","","","75","","","","","","","","","","","","","","","","",""
"null","","974817","SARL_v6n4gu2b5u","msl000120","feedback","","","img/yay_R_a.png","null","","na","prac","","","","","","","","","","","","","","","","","","","",""
"null","","974973","SARL_v6n4gu2b5u","msl000120","fixation","","","img/fixation.png","null","","","prac","","","","","","","","","","","","","","","","","","","",""
"257","","975234","SARL_v6n4gu2b5u","msl000120","rlPractice","","","img/black_2bandit_a2.png","75","img/black_2bandit_a2.png","","prac","","","75","","","","","","","","","","","","","","","","",""
"null","","975989","SARL_v6n4gu2b5u","msl000120","feedback","","","img/yay_R_a.png","null","","na","prac","","","","","","","","","","","","","","","","","","","",""
"null","","976144","SARL_v6n4gu2b5u","msl000120","fixation","","","img/fixation.png","null","","","prac","","","","","","","","","","","","","","","","","","","",""
"325","","976474","SARL_v6n4gu2b5u","msl000120","rlPractice","","","img/black_2bandit_a2.png","75","img/black_2bandit_a2.png","","prac","","","75","","","","","","","","","","","","","","","","",""
"null","","977230","SARL_v6n4gu2b5u","msl000120","feedback","","","img/yay_R_a.png","null","","na","prac","","","","","","","","","","","","","","","","","","","",""
"null","","977385","SARL_v6n4gu2b5u","msl000120","fixation","","","img/fixation.png","null","","","prac","","","","","","","","","","","","","","","","","","","",""
"59819","","1037209","SARL_v6n4gu2b5u","msl000120","","","","","","","","prac","","","","","","","","","","","","","","","","","","","",""
"null","","1038014","SARL_v6n4gu2b5u","msl000120","mixAttFreqPrac","","","img/green_2bandit_a2.png","null","img/green_2bandit_a2.png","70","prac","","","","","","","","","","","","","","","","","","","",""
"null","","1038170","SARL_v6n4gu2b5u","msl000120","fixation","","","img/fixation.png","null","","","prac","","","","","","","","","","","","","","","","","","","",""
"23","","1038198","SARL_v6n4gu2b5u","msl000120","mixAttInfreqPrac","","","img/orange_2bandit_a2.png","68","img/orange_2bandit_a2.png","68","prac","","","","","","","","","","","","","","","","","","","",""
"23","","1038980","SARL_v6n4gu2b5u","msl000120","infreqPrac_resp","","","img/orange_2bandit_a.png","68","img/green_2bandit_a.png","68","prac","","","","","","","","","","","","","","","","","","","",""
"138","","1039135","SARL_v6n4gu2b5u","msl000120","fixation","","","img/fixation.png","70","","","prac","","","","","","","","","","","","","","","","","","","",""
"40","","1039180","SARL_v6n4gu2b5u","msl000120","mixAttInfreqPrac","","","img/orange_2bandit_a2.png","68","img/orange_2bandit_a2.png","68","prac","","","","","","","","","","","","","","","","","","","",""
"40","","1039947","SARL_v6n4gu2b5u","msl000120","infreqPrac_resp","","","img/orange_2bandit_a.png","68","img/green_2bandit_a.png","68","prac","","","","","","","","","","","","","","","","","","","",""
"null","","1040102","SARL_v6n4gu2b5u","msl000120","fixation","","","img/fixation.png","null","","","prac","","","","","","","","","","","","","","","","","","","",""
"57","","1040163","SARL_v6n4gu2b5u","msl000120","mixAttInfreqPrac","","","img/orange_2bandit_a2.png","68","img/orange_2bandit_a2.png","68","prac","","","","","","","","","","","","","","","","","","","",""
"57","","1040911","SARL_v6n4gu2b5u","msl000120","infreqPrac_resp","","","img/orange_2bandit_a.png","68","img/green_2bandit_a.png","68","prac","","","","","","","","","","","","","","","","","","","",""
"null","","1041066","SARL_v6n4gu2b5u","msl000120","fixation","","","img/fixation.png","null","","","prac","","","","","","","","","","","","","","","","","","","",""
"37","","1041106","SARL_v6n4gu2b5u","msl000120","mixAttFreqPrac","","","img/green_2bandit_a2.png","68","img/green_2bandit_a2.png","70","prac","","","","","","","","","","","","","","","","","","","",""
"37","","1041876","SARL_v6n4gu2b5u","msl000120","freqPrac_resp","","","img/green_2bandit_a.png","68","img/green_2bandit_a.png","70","prac","","","","","","","","","","","","","","","","","","","",""
"null","","1042032","SARL_v6n4gu2b5u","msl000120","fixation","","","img/fixation.png","null","","","prac","","","","","","","","","","","","","","","","","","","",""
"577","","1042612","SARL_v6n4gu2b5u","msl000120","mixRLPractice","","","img/black_2bandit_a2.png","75","img/black_2bandit_a2.png","","prac","","","","","","","","","","","","","","","","","","","",""
"null","","1043368","SARL_v6n4gu2b5u","msl000120","feedback","","","img/yay_R_a.png","null","","na","prac","","","","","","","","","","","","","","","","","","","",""
"null","","1044173","SARL_v6n4gu2b5u","msl000120","mixAttFreqPrac","","","img/green_2bandit_a2.png","null","img/green_2bandit_a2.png","70","prac","","","","","","","","","","","","","","","","","","","",""
"null","","1044329","SARL_v6n4gu2b5u","msl000120","fixation","","","img/fixation.png","null","","","prac","","","","","","","","","","","","","","","","","","","",""
"31","","1044365","SARL_v6n4gu2b5u","msl000120","mixAttInfreqPrac","","","img/orange_2bandit_a2.png","70","img/orange_2bandit_a2.png","68","prac","","","","","","","","","","","","","","","","","","","",""
"31","","1045139","SARL_v6n4gu2b5u","msl000120","infreqPrac_resp","","","img/orange_2bandit_a.png","70","img/green_2bandit_a.png","68","prac","","","","","","","","","","","","","","","","","","","",""
"null","","1045295","SARL_v6n4gu2b5u","msl000120","fixation","","","img/fixation.png","null","","","prac","","","","","","","","","","","","","","","","","","","",""
"565","","1045863","SARL_v6n4gu2b5u","msl000120","mixAttFreqPrac","","","img/green_2bandit_a2.png","70","img/green_2bandit_a2.png","70","prac","","","","","","","","","","","","","","","","","","","",""
"565","","1046103","SARL_v6n4gu2b5u","msl000120","freqPrac_resp","","","img/green_2bandit_a.png","70","img/green_2bandit_a.png","70","prac","","","","","","","","","","","","","","","","","","","",""
"null","","1046259","SARL_v6n4gu2b5u","msl000120","fixation","","","img/fixation.png","null","","","prac","","","","","","","","","","","","","","","","","","","",""
"333","","1046595","SARL_v6n4gu2b5u","msl000120","mixAttFreqPrac","","","img/green_2bandit_a2.png","70","img/green_2bandit_a2.png","70","prac","","","","","","","","","","","","","","","","","","","",""
"333","","1047069","SARL_v6n4gu2b5u","msl000120","freqPrac_resp","","","img/green_2bandit_a.png","70","img/green_2bandit_a.png","70","prac","","","","","","","","","","","","","","","","","","","",""
"null","","1047225","SARL_v6n4gu2b5u","msl000120","fixation","","","img/fixation.png","null","","","prac","","","","","","","","","","","","","","","","","","","",""
"406","","1047635","SARL_v6n4gu2b5u","msl000120","mixAttInfreqPrac","","","img/orange_2bandit_a2.png","68","img/orange_2bandit_a2.png","68","prac","","","","","","","","","","","","","","","","","","","",""
"406","","1048034","SARL_v6n4gu2b5u","msl000120","infreqPrac_resp","","","img/orange_2bandit_a.png","68","img/green_2bandit_a.png","68","prac","","","","","","","","","","","","","","","","","","","",""
"null","","1048190","SARL_v6n4gu2b5u","msl000120","fixation","","","img/fixation.png","null","","","prac","","","","","","","","","","","","","","","","","","","",""
"554","","1048749","SARL_v6n4gu2b5u","msl000120","mixRLPractice","","","img/black_2bandit_a2.png","74","img/black_2bandit_a2.png","","prac","","","","","","","","","","","","","","","","","","","",""
"null","","1049505","SARL_v6n4gu2b5u","msl000120","feedback","","","img/yay_L_a.png","null","","na","prac","","","","","","","","","","","","","","","","","","","",""
"34650","","1084160","SARL_v6n4gu2b5u","msl000120","","","","","","","","prac","","","","","","","","","","","","","","","","","","","",""
"623","","1084789","SARL_v6n4gu2b5u","msl000120","freq","","","img/green_2bandit_a2.png","70","","70","test","1","","","square","circle","1","1","1","1","1","","","","","","","","","",""
"null","","1084972","SARL_v6n4gu2b5u","msl000120","freq_resp","","","img/green_2bandit_a.png","70","img/green_2bandit_a.png","70","test","","","","","","","","","1","","","","","","","","","","",""
"null","","1085127","SARL_v6n4gu2b5u","msl000120","fixation","","","img/fixation.png","null","","","test","","","","","","","","","","","","","","","","","","","",""
"295","","1085428","SARL_v6n4gu2b5u","msl000120","freq","","","img/green_2bandit_a2.png","70","","70","test","1","","","square","circle","2","2","2","1","1","","","","","","","","","",""
"null","","1085938","SARL_v6n4gu2b5u","msl000120","freq_resp","","","img/green_2bandit_a.png","70","img/green_2bandit_a.png","70","test","","","","","","","","","1","","","","","","","","","","",""
"null","","1086094","SARL_v6n4gu2b5u","msl000120","fixation","","","img/fixation.png","null","","","test","","","","","","","","","","","","","","","","","","","",""
"358","","1086458","SARL_v6n4gu2b5u","msl000120","freq","","","img/green_2bandit_a2.png","70","","70","test","1","","","square","circle","3","3","3","1","1","","","","","","","","","",""
"null","","1086905","SARL_v6n4gu2b5u","msl000120","freq_resp","","","img/green_2bandit_a.png","70","img/green_2bandit_a.png","70","test","","","","","","","","","1","","","","","","","","","","",""
"null","","1087061","SARL_v6n4gu2b5u","msl000120","fixation","","","img/fixation.png","null","","","test","","","","","","","","","","","","","","","","","","","",""
"298","","1087364","SARL_v6n4gu2b5u","msl000120","freq","","","img/green_2bandit_a2.png","70","","70","test","1","","","square","circle","4","4","4","1","1","","","","","","","","","",""
"null","","1087872","SARL_v6n4gu2b5u","msl000120","freq_resp","","","img/green_2bandit_a.png","70","img/green_2bandit_a.png","70","test","","","","","","","","","1","","","","","","","","","","",""
"null","","1088027","SARL_v6n4gu2b5u","msl000120","fixation","","","img/fixation.png","null","","","test","","","","","","","","","","","","","","","","","","","",""
"378","","1088409","SARL_v6n4gu2b5u","msl000120","freq","","","img/green_2bandit_a2.png","70","","70","test","1","","","square","circle","5","5","5","1","1","","","","","","","","","",""
"null","","1088837","SARL_v6n4gu2b5u","msl000120","freq_resp","","","img/green_2bandit_a.png","70","img/green_2bandit_a.png","70","test","","","","","","","","","1","","","","","","","","","","",""
"null","","1088993","SARL_v6n4gu2b5u","msl000120","fixation","","","img/fixation.png","null","","","test","","","","","","","","","","","","","","","","","","","",""
"237","","1089235","SARL_v6n4gu2b5u","msl000120","infreq","","","img/orange_2bandit_a2.png","70","","68","test","0","","","square","circle","6","6","6","1","0.8333333333333334","","","","","","","","","",""
"null","","1089805","SARL_v6n4gu2b5u","msl000120","infreq_resp","","","img/orange_2bandit_a.png","70","img/orange_2bandit_a.png","68","test","","","","","","","","","1","","","","","","","","","","",""
"null","","1089960","SARL_v6n4gu2b5u","msl000120","fixation","","","img/fixation.png","null","","","test","","","","","","","","","","","","","","","","","","","",""
"451","","1090416","SARL_v6n4gu2b5u","msl000120","freq","","","img/green_2bandit_a2.png","70","","70","test","1","","","square","circle","7","7","7","1","0.8571428571428571","","","","","","","","","",""
"null","","1090771","SARL_v6n4gu2b5u","msl000120","freq_resp","","","img/green_2bandit_a.png","70","img/green_2bandit_a.png","70","test","","","","","","","","","1","","","","","","","","","","",""
"null","","1090926","SARL_v6n4gu2b5u","msl000120","fixation","","","img/fixation.png","null","","","test","","","","","","","","","","","","","","","","","","","",""
"363","","1091294","SARL_v6n4gu2b5u","msl000120","freq","","","img/green_2bandit_a2.png","70","","70","test","1","","","square","circle","8","8","8","1","0.875","","","","","","","","","",""
"null","","1091738","SARL_v6n4gu2b5u","msl000120","freq_resp","","","img/green_2bandit_a.png","70","img/green_2bandit_a.png","70","test","","","","","","","","","1","","","","","","","","","","",""
"null","","1091893","SARL_v6n4gu2b5u","msl000120","fixation","","","img/fixation.png","null","","","test","","","","","","","","","","","","","","","","","","","",""
"577","","1092475","SARL_v6n4gu2b5u","msl000120","infreq","","","img/orange_2bandit_a2.png","68","","68","test","1","","","square","circle","9","9","9","1","0.8888888888888888","","","","","","","","","",""
"null","","1092704","SARL_v6n4gu2b5u","msl000120","infreq_resp","","","img/orange_2bandit_a.png","68","img/orange_2bandit_a.png","68","test","","","","","","","","","1","","","","","","","","","","",""
"null","","1092859","SARL_v6n4gu2b5u","msl000120","fixation","","","img/fixation.png","null","","","test","","","","","","","","","","","","","","","","","","","",""
"426","","1093293","SARL_v6n4gu2b5u","msl000120","freq","","","img/green_2bandit_a2.png","70","","70","test","1","","","square","circle","10","10","10","1","0.9","","","","","","","","","",""
"null","","1093672","SARL_v6n4gu2b5u","msl000120","freq_resp","","","img/green_2bandit_a.png","70","img/green_2bandit_a.png","70","test","","","","","","","","","1","","","","","","","","","","",""
"null","","1093827","SARL_v6n4gu2b5u","msl000120","fixation","","","img/fixation.png","null","","","test","","","","","","","","","","","","","","","","","","","",""
"265","","1094098","SARL_v6n4gu2b5u","msl000120","freq","","","img/green_2bandit_a2.png","70","","70","test","1","","","square","circle","11","11","11","1","0.9090909090909091","","","","","","","","","",""
"null","","1094638","SARL_v6n4gu2b5u","msl000120","freq_resp","","","img/green_2bandit_a.png","70","img/green_2bandit_a.png","70","test","","","","","","","","","1","","","","","","","","","","",""
"null","","1094793","SARL_v6n4gu2b5u","msl000120","fixation","","","img/fixation.png","null","","","test","","","","","","","","","","","","","","","","","","","",""
"400","","1095198","SARL_v6n4gu2b5u","msl000120","freq","","","img/green_2bandit_a2.png","70","","70","test","1","","","square","circle","12","12","12","1","0.9166666666666666","","","","","","","","","",""
"null","","1095605","SARL_v6n4gu2b5u","msl000120","freq_resp","","","img/green_2bandit_a.png","70","img/green_2bandit_a.png","70","test","","","","","","","","","1","","","","","","","","","","",""
"null","","1095762","SARL_v6n4gu2b5u","msl000120","fixation","","","img/fixation.png","null","","","test","","","","","","","","","","","","","","","","","","","",""
"356","","1096121","SARL_v6n4gu2b5u","msl000120","infreq","","","img/orange_2bandit_a2.png","68","","68","test","1","","","square","circle","13","13","13","1","0.9230769230769231","","","","","","","","","",""
"null","","1096571","SARL_v6n4gu2b5u","msl000120","infreq_resp","","","img/orange_2bandit_a.png","68","img/orange_2bandit_a.png","68","test","","","","","","","","","1","","","","","","","","","","",""
"null","","1096727","SARL_v6n4gu2b5u","msl000120","fixation","","","img/fixation.png","null","","","test","","","","","","","","","","","","","","","","","","","",""
"329","","1097062","SARL_v6n4gu2b5u","msl000120","freq","","","img/green_2bandit_a2.png","70","","70","test","1","","","square","circle","14","14","14","1","0.9285714285714286","","","","","","","","","",""
"null","","1097538","SARL_v6n4gu2b5u","msl000120","freq_resp","","","img/green_2bandit_a.png","70","img/green_2bandit_a.png","70","test","","","","","","","","","1","","","","","","","","","","",""
"null","","1097694","SARL_v6n4gu2b5u","msl000120","fixation","","","img/fixation.png","null","","","test","","","","","","","","","","","","","","","","","","","",""
"390","","1098089","SARL_v6n4gu2b5u","msl000120","freq","","","img/green_2bandit_a2.png","70","","70","test","1","","","square","circle","15","15","15","1","0.9333333333333333","","","","","","","","","",""
"null","","1098505","SARL_v6n4gu2b5u","msl000120","freq_resp","","","img/green_2bandit_a.png","70","img/green_2bandit_a.png","70","test","","","","","","","","","1","","","","","","","","","","",""
"null","","1098660","SARL_v6n4gu2b5u","msl000120","fixation","","","img/fixation.png","null","","","test","","","","","","","","","","","","","","","","","","","",""
"266","","1098932","SARL_v6n4gu2b5u","msl000120","freq","","","img/green_2bandit_a2.png","70","","70","test","1","","","square","circle","16","16","16","1","0.9375","","","","","","","","","",""
"null","","1099472","SARL_v6n4gu2b5u","msl000120","freq_resp","","","img/green_2bandit_a.png","70","img/green_2bandit_a.png","70","test","","","","","","","","","1","","","","","","","","","","",""
"null","","1099628","SARL_v6n4gu2b5u","msl000120","fixation","","","img/fixation.png","null","","","test","","","","","","","","","","","","","","","","","","","",""
"223","","1099856","SARL_v6n4gu2b5u","msl000120","freq","","","img/green_2bandit_a2.png","70","","70","test","1","","","square","circle","17","17","17","1","0.9411764705882353","","","","","","","","","",""
"null","","1100439","SARL_v6n4gu2b5u","msl000120","freq_resp","","","img/green_2bandit_a.png","70","img/green_2bandit_a.png","70","test","","","","","","","","","1","","","","","","","","","","",""
"null","","1100595","SARL_v6n4gu2b5u","msl000120","fixation","","","img/fixation.png","null","","","test","","","","","","","","","","","","","","","","","","","",""
"406","","1101006","SARL_v6n4gu2b5u","msl000120","freq","","","img/green_2bandit_a2.png","70","","70","test","1","","","square","circle","18","18","18","1","0.9444444444444444","","","","","","","","","",""
"null","","1101406","SARL_v6n4gu2b5u","msl000120","freq_resp","","","img/green_2bandit_a.png","70","img/green_2bandit_a.png","70","test","","","","","","","","","1","","","","","","","","","","",""
"null","","1101561","SARL_v6n4gu2b5u","msl000120","fixation","","","img/fixation.png","null","","","test","","","","","","","","","","","","","","","","","","","",""
"483","","1102048","SARL_v6n4gu2b5u","msl000120","freq","","","img/green_2bandit_a2.png","70","","70","test","1","","","square","circle","19","19","19","1","0.9473684210526315","","","","","","","","","",""
"null","","1102372","SARL_v6n4gu2b5u","msl000120","freq_resp","","","img/green_2bandit_a.png","70","img/green_2bandit_a.png","70","test","","","","","","","","","1","","","","","","","","","","",""
"null","","1102528","SARL_v6n4gu2b5u","msl000120","fixation","","","img/fixation.png","null","","","test","","","","","","","","","","","","","","","","","","","",""
"null","","1103334","SARL_v6n4gu2b5u","msl000120","freq","","","img/green_2bandit_a2.png","null","","70","test","0","","","square","circle","20","20","20","1","0.9","","","","","","","","","",""
"null","","1103490","SARL_v6n4gu2b5u","msl000120","fixation","","","img/fixation.png","null","","","test","","","","","","","","","","","","","","","","","","","",""
"666","","1104161","SARL_v6n4gu2b5u","msl000120","freq","","","img/green_2bandit_a2.png","70","","70","test","1","","","square","circle","21","21","21","1","0.9047619047619048","","","","","","","","","",""
"null","","1104302","SARL_v6n4gu2b5u","msl000120","freq_resp","","","img/green_2bandit_a.png","70","img/green_2bandit_a.png","70","test","","","","","","","","","1","","","","","","","","","","",""
"null","","1104457","SARL_v6n4gu2b5u","msl000120","fixation","","","img/fixation.png","null","","","test","","","","","","","","","","","","","","","","","","","",""
"318","","1104780","SARL_v6n4gu2b5u","msl000120","freq","","","img/green_2bandit_a2.png","70","","70","test","1","","","square","circle","22","22","22","1","0.9090909090909091","","","","","","","","","",""
"null","","1105267","SARL_v6n4gu2b5u","msl000120","freq_resp","","","img/green_2bandit_a.png","70","img/green_2bandit_a.png","70","test","","","","","","","","","1","","","","","","","","","","",""
"null","","1105423","SARL_v6n4gu2b5u","msl000120","fixation","","","img/fixation.png","null","","","test","","","","","","","","","","","","","","","","","","","",""
"244","","1105672","SARL_v6n4gu2b5u","msl000120","freq","","","img/green_2bandit_a2.png","70","","70","test","1","","","square","circle","23","23","23","1","0.9130434782608695","","","","","","","","","",""
"null","","1106235","SARL_v6n4gu2b5u","msl000120","freq_resp","","","img/green_2bandit_a.png","70","img/green_2bandit_a.png","70","test","","","","","","","","","1","","","","","","","","","","",""
"null","","1106389","SARL_v6n4gu2b5u","msl000120","fixation","","","img/fixation.png","null","","","test","","","","","","","","","","","","","","","","","","","",""
"107","","1106500","SARL_v6n4gu2b5u","msl000120","freq","","","img/green_2bandit_a2.png","70","","70","test","1","","","square","circle","24","24","24","1","0.9166666666666666","","","","","","","","","",""
"null","","1107199","SARL_v6n4gu2b5u","msl000120","freq_resp","","","img/green_2bandit_a.png","70","img/green_2bandit_a.png","70","test","","","","","","","","","1","","","","","","","","","","",""
"null","","1107354","SARL_v6n4gu2b5u","msl000120","fixation","","","img/fixation.png","null","","","test","","","","","","","","","","","","","","","","","","","",""
"114","","1107474","SARL_v6n4gu2b5u","msl000120","freq","","","img/green_2bandit_a2.png","70","","70","test","1","","","square","circle","25","25","25","1","0.92","","","","","","","","","",""
"null","","1108166","SARL_v6n4gu2b5u","msl000120","freq_resp","","","img/green_2bandit_a.png","70","img/green_2bandit_a.png","70","test","","","","","","","","","1","","","","","","","","","","",""
"null","","1108322","SARL_v6n4gu2b5u","msl000120","fixation","","","img/fixation.png","null","","","test","","","","","","","","","","","","","","","","","","","",""
"476","","1108802","SARL_v6n4gu2b5u","msl000120","rl","","","img/black_2bandit_a2.png","75","","0","test","","","1","square","circle","26","","0","1","","75","0.2","0.8","0.022879398857409083","0.8","0.2","0.2","circle","1","0"
"null","","1109559","SARL_v6n4gu2b5u","msl000120","feedback","","","img/yay_R_a.png","null","","na","test","","","","","","","","","1","","75","0.2","0.8","","","","0.2","","1",""
"712","","1110276","SARL_v6n4gu2b5u","msl000120","freq","","","img/green_2bandit_a2.png","70","","70","test","1","","","square","circle","27","26","1","2","0.9230769230769231","","","","","","","","","",""
"null","","1110368","SARL_v6n4gu2b5u","msl000120","freq_resp","","","img/green_2bandit_a.png","70","img/green_2bandit_a.png","70","test","","","","","","","","","2","","","","","","","","","","",""
"null","","1110523","SARL_v6n4gu2b5u","msl000120","fixation","","","img/fixation.png","null","","","test","","","","","","","","","","","","","","","","","","","",""
"584","","1111112","SARL_v6n4gu2b5u","msl000120","infreq","","","img/orange_2bandit_a2.png","68","","68","test","1","","","square","circle","28","27","2","2","0.9259259259259259","","","","","","","","","",""
"null","","1111333","SARL_v6n4gu2b5u","msl000120","infreq_resp","","","img/orange_2bandit_a.png","68","img/orange_2bandit_a.png","68","test","","","","","","","","","2","","","","","","","","","","",""
"null","","1111489","SARL_v6n4gu2b5u","msl000120","fixation","","","img/fixation.png","null","","","test","","","","","","","","","","","","","","","","","","","",""
"535","","1112028","SARL_v6n4gu2b5u","msl000120","freq","","","img/green_2bandit_a2.png","70","","70","test","1","","","square","circle","29","28","3","2","0.9285714285714286","","","","","","","","","",""
"null","","1112299","SARL_v6n4gu2b5u","msl000120","freq_resp","","","img/green_2bandit_a.png","70","img/green_2bandit_a.png","70","test","","","","","","","","","2","","","","","","","","","","",""
"null","","1112454","SARL_v6n4gu2b5u","msl000120","fixation","","","img/fixation.png","null","","","test","","","","","","","","","","","","","","","","","","","",""
"332","","1112791","SARL_v6n4gu2b5u","msl000120","freq","","","img/green_2bandit_a2.png","70","","70","test","1","","","square","circle","30","29","4","2","0.9310344827586207","","","","","","","","","",""
"null","","1113264","SARL_v6n4gu2b5u","msl000120","freq_resp","","","img/green_2bandit_a.png","70","img/green_2bandit_a.png","70","test","","","","","","","","","2","","","","","","","","","","",""
"null","","1113419","SARL_v6n4gu2b5u","msl000120","fixation","","","img/fixation.png","null","","","test","","","","","","","","","","","","","","","","","","","",""
"309","","1113733","SARL_v6n4gu2b5u","msl000120","freq","","","img/green_2bandit_a2.png","70","","70","test","1","","","square","circle","31","30","5","2","0.9333333333333333","","","","","","","","","",""
"null","","1114230","SARL_v6n4gu2b5u","msl000120","freq_resp","","","img/green_2bandit_a.png","70","img/green_2bandit_a.png","70","test","","","","","","","","","2","","","","","","","","","","",""
"null","","1114386","SARL_v6n4gu2b5u","msl000120","fixation","","","img/fixation.png","null","","","test","","","","","","","","","","","","","","","","","","","",""
"311","","1114701","SARL_v6n4gu2b5u","msl000120","freq","","","img/green_2bandit_a2.png","70","","70","test","1","","","square","circle","32","31","6","2","0.9354838709677419","","","","","","","","","",""
"null","","1115197","SARL_v6n4gu2b5u","msl000120","freq_resp","","","img/green_2bandit_a.png","70","img/green_2bandit_a.png","70","test","","","","","","","","","2","","","","","","","","","","",""
"null","","1115352","SARL_v6n4gu2b5u","msl000120","fixation","","","img/fixation.png","null","","","test","","","","","","","","","","","","","","","","","","","",""
"293","","1115651","SARL_v6n4gu2b5u","msl000120","freq","","","img/green_2bandit_a2.png","70","","70","test","1","","","square","circle","33","32","7","2","0.9375","","","","","","","","","",""
"null","","1116164","SARL_v6n4gu2b5u","msl000120","freq_resp","","","img/green_2bandit_a.png","70","img/green_2bandit_a.png","70","test","","","","","","","","","2","","","","","","","","","","",""
"null","","1116318","SARL_v6n4gu2b5u","msl000120","fixation","","","img/fixation.png","null","","","test","","","","","","","","","","","","","","","","","","","",""
"301","","1116625","SARL_v6n4gu2b5u","msl000120","freq","","","img/green_2bandit_a2.png","70","","70","test","1","","","square","circle","34","33","8","2","0.9393939393939394","","","","","","","","","",""
"null","","1117131","SARL_v6n4gu2b5u","msl000120","freq_resp","","","img/green_2bandit_a.png","70","img/green_2bandit_a.png","70","test","","","","","","","","","2","","","","","","","","","","",""
"null","","1117286","SARL_v6n4gu2b5u","msl000120","fixation","","","img/fixation.png","null","","","test","","","","","","","","","","","","","","","","","","","",""
"112","","1117402","SARL_v6n4gu2b5u","msl000120","freq","","","img/green_2bandit_a2.png","70","","70","test","1","","","square","circle","35","34","9","2","0.9411764705882353","","","","","","","","","",""
"null","","1118097","SARL_v6n4gu2b5u","msl000120","freq_resp","","","img/green_2bandit_a.png","70","img/green_2bandit_a.png","70","test","","","","","","","","","2","","","","","","","","","","",""
"null","","1118252","SARL_v6n4gu2b5u","msl000120","fixation","","","img/fixation.png","null","","","test","","","","","","","","","","","","","","","","","","","",""
"470","","1118728","SARL_v6n4gu2b5u","msl000120","freq","","","img/green_2bandit_a2.png","70","","70","test","1","","","square","circle","36","35","10","2","0.9428571428571428","","","","","","","","","",""
"null","","1119063","SARL_v6n4gu2b5u","msl000120","freq_resp","","","img/green_2bandit_a.png","70","img/green_2bandit_a.png","70","test","","","","","","","","","2","","","","","","","","","","",""
"null","","1119220","SARL_v6n4gu2b5u","msl000120","fixation","","","img/fixation.png","null","","","test","","","","","","","","","","","","","","","","","","","",""
"302","","1119526","SARL_v6n4gu2b5u","msl000120","freq","","","img/green_2bandit_a2.png","70","","70","test","1","","","square","circle","37","36","11","2","0.9444444444444444","","","","","","","","","",""
"null","","1120031","SARL_v6n4gu2b5u","msl000120","freq_resp","","","img/green_2bandit_a.png","70","img/green_2bandit_a.png","70","test","","","","","","","","","2","","","","","","","","","","",""
"null","","1120186","SARL_v6n4gu2b5u","msl000120","fixation","","","img/fixation.png","null","","","test","","","","","","","","","","","","","","","","","","","",""
"263","","1120454","SARL_v6n4gu2b5u","msl000120","freq","","","img/green_2bandit_a2.png","70","","70","test","1","","","square","circle","38","37","12","2","0.9459459459459459","","","","","","","","","",""
"null","","1120996","SARL_v6n4gu2b5u","msl000120","freq_resp","","","img/green_2bandit_a.png","70","img/green_2bandit_a.png","70","test","","","","","","","","","2","","","","","","","","","","",""
"null","","1121151","SARL_v6n4gu2b5u","msl000120","fixation","","","img/fixation.png","null","","","test","","","","","","","","","","","","","","","","","","","",""
"274","","1121430","SARL_v6n4gu2b5u","msl000120","freq","","","img/green_2bandit_a2.png","70","","70","test","1","","","square","circle","39","38","13","2","0.9473684210526315","","","","","","","","","",""
"null","","1121962","SARL_v6n4gu2b5u","msl000120","freq_resp","","","img/green_2bandit_a.png","70","img/green_2bandit_a.png","70","test","","","","","","","","","2","","","","","","","","","","",""
"null","","1122117","SARL_v6n4gu2b5u","msl000120","fixation","","","img/fixation.png","null","","","test","","","","","","","","","","","","","","","","","","","",""
"288","","1122410","SARL_v6n4gu2b5u","msl000120","freq","","","img/green_2bandit_a2.png","70","","70","test","1","","","square","circle","40","39","14","2","0.9487179487179487","","","","","","","","","",""
"null","","1122928","SARL_v6n4gu2b5u","msl000120","freq_resp","","","img/green_2bandit_a.png","70","img/green_2bandit_a.png","70","test","","","","","","","","","2","","","","","","","","","","",""
"null","","1123084","SARL_v6n4gu2b5u","msl000120","fixation","","","img/fixation.png","null","","","test","","","","","","","","","","","","","","","","","","","",""
"311","","1123399","SARL_v6n4gu2b5u","msl000120","freq","","","img/green_2bandit_a2.png","70","","70","test","1","","","square","circle","41","40","15","2","0.95","","","","","","","","","",""
"null","","1123895","SARL_v6n4gu2b5u","msl000120","freq_resp","","","img/green_2bandit_a.png","70","img/green_2bandit_a.png","70","test","","","","","","","","","2","","","","","","","","","","",""
"null","","1124050","SARL_v6n4gu2b5u","msl000120","fixation","","","img/fixation.png","null","","","test","","","","","","","","","","","","","","","","","","","",""
"207","","1124264","SARL_v6n4gu2b5u","msl000120","freq","","","img/green_2bandit_a2.png","70","","70","test","1","","","square","circle","42","41","16","2","0.9512195121951219","","","","","","","","","",""
"null","","1124863","SARL_v6n4gu2b5u","msl000120","freq_resp","","","img/green_2bandit_a.png","70","img/green_2bandit_a.png","70","test","","","","","","","","","2","","","","","","","","","","",""
"null","","1125019","SARL_v6n4gu2b5u","msl000120","fixation","","","img/fixation.png","null","","","test","","","","","","","","","","","","","","","","","","","",""
"384","","1125408","SARL_v6n4gu2b5u","msl000120","infreq","","","img/orange_2bandit_a2.png","68","","68","test","1","","","square","circle","43","42","17","2","0.9523809523809523","","","","","","","","","",""
"null","","1125829","SARL_v6n4gu2b5u","msl000120","infreq_resp","","","img/orange_2bandit_a.png","68","img/orange_2bandit_a.png","68","test","","","","","","","","","2","","","","","","","","","","",""
"null","","1125983","SARL_v6n4gu2b5u","msl000120","fixation","","","img/fixation.png","null","","","test","","","","","","","","","","","","","","","","","","","",""
"338","","1126326","SARL_v6n4gu2b5u","msl000120","freq","","","img/green_2bandit_a2.png","70","","70","test","1","","","square","circle","44","43","18","2","0.9534883720930233","","","","","","","","","",""
"null","","1126794","SARL_v6n4gu2b5u","msl000120","freq_resp","","","img/green_2bandit_a.png","70","img/green_2bandit_a.png","70","test","","","","","","","","","2","","","","","","","","","","",""
"null","","1126949","SARL_v6n4gu2b5u","msl000120","fixation","","","img/fixation.png","null","","","test","","","","","","","","","","","","","","","","","","","",""
"231","","1127185","SARL_v6n4gu2b5u","msl000120","freq","","","img/green_2bandit_a2.png","70","","70","test","1","","","square","circle","45","44","19","2","0.9545454545454546","","","","","","","","","",""
"null","","1127760","SARL_v6n4gu2b5u","msl000120","freq_resp","","","img/green_2bandit_a.png","70","img/green_2bandit_a.png","70","test","","","","","","","","","2","","","","","","","","","","",""
"null","","1127915","SARL_v6n4gu2b5u","msl000120","fixation","","","img/fixation.png","null","","","test","","","","","","","","","","","","","","","","","","","",""
"574","","1128494","SARL_v6n4gu2b5u","msl000120","rl","","","img/black_2bandit_a2.png","75","","0","test","","","0","square","circle","46","","0","2","","75","0.2","0.8","0.6809474256077128","0.8","0.2","0.2","circle","2","0"
"null","","1129250","SARL_v6n4gu2b5u","msl000120","feedback","","","img/boo_R_a.png","null","","na","test","","","","","","","","","2","","75","0.2","0.8","","","","0.2","","2",""
"740","","1129995","SARL_v6n4gu2b5u","msl000120","freq","","","img/green_2bandit_a2.png","70","","70","test","1","","","square","circle","47","45","1","3","0.9555555555555556","","","","","","","","","",""
"null","","1130060","SARL_v6n4gu2b5u","msl000120","freq_resp","","","img/green_2bandit_a.png","70","img/green_2bandit_a.png","70","test","","","","","","","","","3","","","","","","","","","","",""
"null","","1130217","SARL_v6n4gu2b5u","msl000120","fixation","","","img/fixation.png","null","","","test","","","","","","","","","","","","","","","","","","","",""
"516","","1130737","SARL_v6n4gu2b5u","msl000120","freq","","","img/green_2bandit_a2.png","70","","70","test","1","","","square","circle","48","46","2","3","0.9565217391304348","","","","","","","","","",""
"null","","1131026","SARL_v6n4gu2b5u","msl000120","freq_resp","","","img/green_2bandit_a.png","70","img/green_2bandit_a.png","70","test","","","","","","","","","3","","","","","","","","","","",""
"null","","1131180","SARL_v6n4gu2b5u","msl000120","fixation","","","img/fixation.png","null","","","test","","","","","","","","","","","","","","","","","","","",""
"367","","1131553","SARL_v6n4gu2b5u","msl000120","freq","","","img/green_2bandit_a2.png","70","","70","test","1","","","square","circle","49","47","3","3","0.9574468085106383","","","","","","","","","",""
"null","","1131991","SARL_v6n4gu2b5u","msl000120","freq_resp","","","img/green_2bandit_a.png","70","img/green_2bandit_a.png","70","test","","","","","","","","","3","","","","","","","","","","",""
"null","","1132147","SARL_v6n4gu2b5u","msl000120","fixation","","","img/fixation.png","null","","","test","","","","","","","","","","","","","","","","","","","",""
"247","","1132400","SARL_v6n4gu2b5u","msl000120","freq","","","img/green_2bandit_a2.png","70","","70","test","1","","","square","circle","50","48","4","3","0.9583333333333334","","","","","","","","","",""
"null","","1132959","SARL_v6n4gu2b5u","msl000120","freq_resp","","","img/green_2bandit_a.png","70","img/green_2bandit_a.png","70","test","","","","","","","","","3","","","","","","","","","","",""
"null","","1133115","SARL_v6n4gu2b5u","msl000120","fixation","","","img/fixation.png","null","","","test","","","","","","","","","","","","","","","","","","","",""
"110","","1133229","SARL_v6n4gu2b5u","msl000120","freq","","","img/green_2bandit_a2.png","70","","70","test","1","","","square","circle","51","49","5","3","0.9591836734693877","","","","","","","","","",""
"null","","1133926","SARL_v6n4gu2b5u","msl000120","freq_resp","","","img/green_2bandit_a.png","70","img/green_2bandit_a.png","70","test","","","","","","","","","3","","","","","","","","","","",""
"null","","1134081","SARL_v6n4gu2b5u","msl000120","fixation","","","img/fixation.png","null","","","test","","","","","","","","","","","","","","","","","","","",""
"100","","1134185","SARL_v6n4gu2b5u","msl000120","freq","","","img/green_2bandit_a2.png","70","","70","test","1","","","square","circle","52","50","6","3","0.96","","","","","","","","","",""
"null","","1134892","SARL_v6n4gu2b5u","msl000120","freq_resp","","","img/green_2bandit_a.png","70","img/green_2bandit_a.png","70","test","","","","","","","","","3","","","","","","","","","","",""
"null","","1135047","SARL_v6n4gu2b5u","msl000120","fixation","","","img/fixation.png","null","","","test","","","","","","","","","","","","","","","","","","","",""
"124","","1135174","SARL_v6n4gu2b5u","msl000120","infreq","","","img/orange_2bandit_a2.png","70","","68","test","0","","","square","circle","53","51","7","3","0.9411764705882353","","","","","","","","","",""
"null","","1135856","SARL_v6n4gu2b5u","msl000120","infreq_resp","","","img/orange_2bandit_a.png","70","img/orange_2bandit_a.png","68","test","","","","","","","","","3","","","","","","","","","","",""
"null","","1136011","SARL_v6n4gu2b5u","msl000120","fixation","","","img/fixation.png","null","","","test","","","","","","","","","","","","","","","","","","","",""
"548","","1136565","SARL_v6n4gu2b5u","msl000120","freq","","","img/green_2bandit_a2.png","70","","70","test","1","","","square","circle","54","52","8","3","0.9423076923076923","","","","","","","","","",""
"null","","1136822","SARL_v6n4gu2b5u","msl000120","freq_resp","","","img/green_2bandit_a.png","70","img/green_2bandit_a.png","70","test","","","","","","","","","3","","","","","","","","","","",""
"null","","1136978","SARL_v6n4gu2b5u","msl000120","fixation","","","img/fixation.png","null","","","test","","","","","","","","","","","","","","","","","","","",""
"289","","1137272","SARL_v6n4gu2b5u","msl000120","freq","","","img/green_2bandit_a2.png","70","","70","test","1","","","square","circle","55","53","9","3","0.9433962264150944","","","","","","","","","",""
"null","","1137789","SARL_v6n4gu2b5u","msl000120","freq_resp","","","img/green_2bandit_a.png","70","img/green_2bandit_a.png","70","test","","","","","","","","","3","","","","","","","","","","",""
"null","","1137944","SARL_v6n4gu2b5u","msl000120","fixation","","","img/fixation.png","null","","","test","","","","","","","","","","","","","","","","","","","",""
"274","","1138222","SARL_v6n4gu2b5u","msl000120","freq","","","img/green_2bandit_a2.png","70","","70","test","1","","","square","circle","56","54","10","3","0.9444444444444444","","","","","","","","","",""
"null","","1138753","SARL_v6n4gu2b5u","msl000120","freq_resp","","","img/green_2bandit_a.png","70","img/green_2bandit_a.png","70","test","","","","","","","","","3","","","","","","","","","","",""
"null","","1138909","SARL_v6n4gu2b5u","msl000120","fixation","","","img/fixation.png","null","","","test","","","","","","","","","","","","","","","","","","","",""
"90","","1139004","SARL_v6n4gu2b5u","msl000120","freq","","","img/green_2bandit_a2.png","70","","70","test","1","","","square","circle","57","55","11","3","0.9454545454545454","","","","","","","","","",""
"null","","1139720","SARL_v6n4gu2b5u","msl000120","freq_resp","","","img/green_2bandit_a.png","70","img/green_2bandit_a.png","70","test","","","","","","","","","3","","","","","","","","","","",""
"null","","1139874","SARL_v6n4gu2b5u","msl000120","fixation","","","img/fixation.png","null","","","test","","","","","","","","","","","","","","","","","","","",""
"294","","1140175","SARL_v6n4gu2b5u","msl000120","freq","","","img/green_2bandit_a2.png","70","","70","test","1","","","square","circle","58","56","12","3","0.9464285714285714","","","","","","","","","",""
"null","","1140686","SARL_v6n4gu2b5u","msl000120","freq_resp","","","img/green_2bandit_a.png","70","img/green_2bandit_a.png","70","test","","","","","","","","","3","","","","","","","","","","",""
"null","","1140841","SARL_v6n4gu2b5u","msl000120","fixation","","","img/fixation.png","null","","","test","","","","","","","","","","","","","","","","","","","",""
"186","","1141032","SARL_v6n4gu2b5u","msl000120","freq","","","img/green_2bandit_a2.png","70","","70","test","1","","","square","circle","59","57","13","3","0.9473684210526315","","","","","","","","","",""
"null","","1141651","SARL_v6n4gu2b5u","msl000120","freq_resp","","","img/green_2bandit_a.png","70","img/green_2bandit_a.png","70","test","","","","","","","","","3","","","","","","","","","","",""
"null","","1141805","SARL_v6n4gu2b5u","msl000120","fixation","","","img/fixation.png","null","","","test","","","","","","","","","","","","","","","","","","","",""
"84","","1141894","SARL_v6n4gu2b5u","msl000120","freq","","","img/green_2bandit_a2.png","70","","70","test","1","","","square","circle","60","58","14","3","0.9482758620689655","","","","","","","","","",""
"null","","1142616","SARL_v6n4gu2b5u","msl000120","freq_resp","","","img/green_2bandit_a.png","70","img/green_2bandit_a.png","70","test","","","","","","","","","3","","","","","","","","","","",""
"null","","1142771","SARL_v6n4gu2b5u","msl000120","fixation","","","img/fixation.png","null","","","test","","","","","","","","","","","","","","","","","","","",""
"62","","1142839","SARL_v6n4gu2b5u","msl000120","freq","","","img/green_2bandit_a2.png","70","","70","test","1","","","square","circle","61","59","15","3","0.9491525423728814","","","","","","","","","",""
"null","","1143582","SARL_v6n4gu2b5u","msl000120","freq_resp","","","img/green_2bandit_a.png","70","img/green_2bandit_a.png","70","test","","","","","","","","","3","","","","","","","","","","",""
"null","","1143737","SARL_v6n4gu2b5u","msl000120","fixation","","","img/fixation.png","null","","","test","","","","","","","","","","","","","","","","","","","",""
"64","","1143807","SARL_v6n4gu2b5u","msl000120","freq","","","img/green_2bandit_a2.png","70","","70","test","1","","","square","circle","62","60","16","3","0.95","","","","","","","","","",""
"null","","1144548","SARL_v6n4gu2b5u","msl000120","freq_resp","","","img/green_2bandit_a.png","70","img/green_2bandit_a.png","70","test","","","","","","","","","3","","","","","","","","","","",""
"null","","1144705","SARL_v6n4gu2b5u","msl000120","fixation","","","img/fixation.png","null","","","test","","","","","","","","","","","","","","","","","","","",""
"28","","1144737","SARL_v6n4gu2b5u","msl000120","freq","","","img/green_2bandit_a2.png","70","","70","test","1","","","square","circle","63","61","17","3","0.9508196721311475","","","","","","","","","",""
"null","","1145515","SARL_v6n4gu2b5u","msl000120","freq_resp","","","img/green_2bandit_a.png","70","img/green_2bandit_a.png","70","test","","","","","","","","","3","","","","","","","","","","",""
"null","","1145669","SARL_v6n4gu2b5u","msl000120","fixation","","","img/fixation.png","null","","","test","","","","","","","","","","","","","","","","","","","",""
"381","","1146056","SARL_v6n4gu2b5u","msl000120","infreq","","","img/orange_2bandit_a2.png","68","","68","test","1","","","square","circle","64","62","18","3","0.9516129032258065","","","","","","","","","",""
"null","","1146479","SARL_v6n4gu2b5u","msl000120","infreq_resp","","","img/orange_2bandit_a.png","68","img/orange_2bandit_a.png","68","test","","","","","","","","","3","","","","","","","","","","",""
"null","","1146635","SARL_v6n4gu2b5u","msl000120","fixation","","","img/fixation.png","null","","","test","","","","","","","","","","","","","","","","","","","",""
"399","","1147040","SARL_v6n4gu2b5u","msl000120","freq","","","img/green_2bandit_a2.png","70","","70","test","1","","","square","circle","65","63","19","3","0.9523809523809523","","","","","","","","","",""
"null","","1147445","SARL_v6n4gu2b5u","msl000120","freq_resp","","","img/green_2bandit_a.png","70","img/green_2bandit_a.png","70","test","","","","","","","","","3","","","","","","","","","","",""
"null","","1147600","SARL_v6n4gu2b5u","msl000120","fixation","","","img/fixation.png","null","","","test","","","","","","","","","","","","","","","","","","","",""
"353","","1147958","SARL_v6n4gu2b5u","msl000120","freq","","","img/green_2bandit_a2.png","70","","70","test","1","","","square","circle","66","64","20","3","0.953125","","","","","","","","","",""
"null","","1148409","SARL_v6n4gu2b5u","msl000120","freq_resp","","","img/green_2bandit_a.png","70","img/green_2bandit_a.png","70","test","","","","","","","","","3","","","","","","","","","","",""
"null","","1148565","SARL_v6n4gu2b5u","msl000120","fixation","","","img/fixation.png","null","","","test","","","","","","","","","","","","","","","","","","","",""
"261","","1148831","SARL_v6n4gu2b5u","msl000120","infreq","","","img/orange_2bandit_a2.png","70","","68","test","0","","","square","circle","67","65","21","3","0.9384615384615385","","","","","","","","","",""
"null","","1149376","SARL_v6n4gu2b5u","msl000120","infreq_resp","","","img/orange_2bandit_a.png","70","img/orange_2bandit_a.png","68","test","","","","","","","","","3","","","","","","","","","","",""
"null","","1149531","SARL_v6n4gu2b5u","msl000120","fixation","","","img/fixation.png","null","","","test","","","","","","","","","","","","","","","","","","","",""
"512","","1150047","SARL_v6n4gu2b5u","msl000120","freq","","","img/green_2bandit_a2.png","70","","70","test","1","","","square","circle","68","66","22","3","0.9393939393939394","","","","","","","","","",""
"null","","1150340","SARL_v6n4gu2b5u","msl000120","freq_resp","","","img/green_2bandit_a.png","70","img/green_2bandit_a.png","70","test","","","","","","","","","3","","","","","","","","","","",""
"null","","1150496","SARL_v6n4gu2b5u","msl000120","fixation","","","img/fixation.png","null","","","test","","","","","","","","","","","","","","","","","","","",""
"283","","1150784","SARL_v6n4gu2b5u","msl000120","freq","","","img/green_2bandit_a2.png","70","","70","test","1","","","square","circle","69","67","23","3","0.9402985074626866","","","","","","","","","",""
"null","","1151305","SARL_v6n4gu2b5u","msl000120","freq_resp","","","img/green_2bandit_a.png","70","img/green_2bandit_a.png","70","test","","","","","","","","","3","","","","","","","","","","",""
"null","","1151462","SARL_v6n4gu2b5u","msl000120","fixation","","","img/fixation.png","null","","","test","","","","","","","","","","","","","","","","","","","",""
"298","","1151764","SARL_v6n4gu2b5u","msl000120","freq","","","img/green_2bandit_a2.png","70","","70","test","1","","","square","circle","70","68","24","3","0.9411764705882353","","","","","","","","","",""
"null","","1152271","SARL_v6n4gu2b5u","msl000120","freq_resp","","","img/green_2bandit_a.png","70","img/green_2bandit_a.png","70","test","","","","","","","","","3","","","","","","","","","","",""
"null","","1152427","SARL_v6n4gu2b5u","msl000120","fixation","","","img/fixation.png","null","","","test","","","","","","","","","","","","","","","","","","","",""
"98","","1152530","SARL_v6n4gu2b5u","msl000120","freq","","","img/green_2bandit_a2.png","70","","70","test","1","","","square","circle","71","69","25","3","0.9420289855072463","","","","","","","","","",""
"null","","1153237","SARL_v6n4gu2b5u","msl000120","freq_resp","","","img/green_2bandit_a.png","70","img/green_2bandit_a.png","70","test","","","","","","","","","3","","","","","","","","","","",""
"null","","1153393","SARL_v6n4gu2b5u","msl000120","fixation","","","img/fixation.png","null","","","test","","","","","","","","","","","","","","","","","","","",""
"101","","1153499","SARL_v6n4gu2b5u","msl000120","freq","","","img/green_2bandit_a2.png","70","","70","test","1","","","square","circle","72","70","26","3","0.9428571428571428","","","","","","","","","",""
"null","","1154203","SARL_v6n4gu2b5u","msl000120","freq_resp","","","img/green_2bandit_a.png","70","img/green_2bandit_a.png","70","test","","","","","","","","","3","","","","","","","","","","",""
"null","","1154358","SARL_v6n4gu2b5u","msl000120","fixation","","","img/fixation.png","null","","","test","","","","","","","","","","","","","","","","","","","",""
"24","","1154388","SARL_v6n4gu2b5u","msl000120","freq","","","img/green_2bandit_a2.png","70","","70","test","1","","","square","circle","73","71","27","3","0.9436619718309859","","","","","","","","","",""
"null","","1155170","SARL_v6n4gu2b5u","msl000120","freq_resp","","","img/green_2bandit_a.png","70","img/green_2bandit_a.png","70","test","","","","","","","","","3","","","","","","","","","","",""
"null","","1155325","SARL_v6n4gu2b5u","msl000120","fixation","","","img/fixation.png","null","","","test","","","","","","","","","","","","","","","","","","","",""
"364","","1155695","SARL_v6n4gu2b5u","msl000120","freq","","","img/green_2bandit_a2.png","70","","70","test","1","","","square","circle","74","72","28","3","0.9444444444444444","","","","","","","","","",""
"null","","1156137","SARL_v6n4gu2b5u","msl000120","freq_resp","","","img/green_2bandit_a.png","70","img/green_2bandit_a.png","70","test","","","","","","","","","3","","","","","","","","","","",""
"null","","1156293","SARL_v6n4gu2b5u","msl000120","fixation","","","img/fixation.png","null","","","test","","","","","","","","","","","","","","","","","","","",""
"739","","1157038","SARL_v6n4gu2b5u","msl000120","rl","","","img/black_2bandit_a2.png","74","","0","test","","","1","square","circle","75","","0","3","","74","0.2","0.8","0.10211900792385631","0.8","0.2","0.8","square","3","0"
"null","","1157793","SARL_v6n4gu2b5u","msl000120","feedback","","","img/yay_L_a.png","null","","na","test","","","","","","","","","3","","74","0.2","0.8","","","","0.8","","3",""
"548","","1158347","SARL_v6n4gu2b5u","msl000120","freq","","","img/green_2bandit_a2.png","70","","70","test","1","","","square","circle","76","73","1","4","0.9452054794520548","","","","","","","","","",""
"null","","1158605","SARL_v6n4gu2b5u","msl000120","freq_resp","","","img/green_2bandit_a.png","70","img/green_2bandit_a.png","70","test","","","","","","","","","4","","","","","","","","","","",""
"null","","1158760","SARL_v6n4gu2b5u","msl000120","fixation","","","img/fixation.png","null","","","test","","","","","","","","","","","","","","","","","","","",""
"419","","1159184","SARL_v6n4gu2b5u","msl000120","freq","","","img/green_2bandit_a2.png","70","","70","test","1","","","square","circle","77","74","2","4","0.9459459459459459","","","","","","","","","",""
"null","","1159569","SARL_v6n4gu2b5u","msl000120","freq_resp","","","img/green_2bandit_a.png","70","img/green_2bandit_a.png","70","test","","","","","","","","","4","","","","","","","","","","",""
"null","","1159725","SARL_v6n4gu2b5u","msl000120","fixation","","","img/fixation.png","null","","","test","","","","","","","","","","","","","","","","","","","",""
"150","","1159880","SARL_v6n4gu2b5u","msl000120","freq","","","img/green_2bandit_a2.png","70","","70","test","1","","","square","circle","78","75","3","4","0.9466666666666667","","","","","","","","","",""
"null","","1160536","SARL_v6n4gu2b5u","msl000120","freq_resp","","","img/green_2bandit_a.png","70","img/green_2bandit_a.png","70","test","","","","","","","","","4","","","","","","","","","","",""
"null","","1160691","SARL_v6n4gu2b5u","msl000120","fixation","","","img/fixation.png","null","","","test","","","","","","","","","","","","","","","","","","","",""
"262","","1160959","SARL_v6n4gu2b5u","msl000120","freq","","","img/green_2bandit_a2.png","70","","70","test","1","","","square","circle","79","76","4","4","0.9473684210526315","","","","","","","","","",""
"null","","1161501","SARL_v6n4gu2b5u","msl000120","freq_resp","","","img/green_2bandit_a.png","70","img/green_2bandit_a.png","70","test","","","","","","","","","4","","","","","","","","","","",""
"null","","1161657","SARL_v6n4gu2b5u","msl000120","fixation","","","img/fixation.png","null","","","test","","","","","","","","","","","","","","","","","","","",""
"251","","1161913","SARL_v6n4gu2b5u","msl000120","freq","","","img/green_2bandit_a2.png","70","","70","test","1","","","square","circle","80","77","5","4","0.948051948051948","","","","","","","","","",""
"null","","1162467","SARL_v6n4gu2b5u","msl000120","freq_resp","","","img/green_2bandit_a.png","70","img/green_2bandit_a.png","70","test","","","","","","","","","4","","","","","","","","","","",""
"null","","1162623","SARL_v6n4gu2b5u","msl000120","fixation","","","img/fixation.png","null","","","test","","","","","","","","","","","","","","","","","","","",""
"77","","1162703","SARL_v6n4gu2b5u","msl000120","freq","","","img/green_2bandit_a2.png","70","","70","test","1","","","square","circle","81","78","6","4","0.9487179487179487","","","","","","","","","",""
"null","","1163432","SARL_v6n4gu2b5u","msl000120","freq_resp","","","img/green_2bandit_a.png","70","img/green_2bandit_a.png","70","test","","","","","","","","","4","","","","","","","","","","",""
"null","","1163588","SARL_v6n4gu2b5u","msl000120","fixation","","","img/fixation.png","null","","","test","","","","","","","","","","","","","","","","","","","",""
"86","","1163677","SARL_v6n4gu2b5u","msl000120","infreq","","","img/orange_2bandit_a2.png","70","","68","test","0","","","square","circle","82","79","7","4","0.9367088607594937","","","","","","","","","",""
"null","","1164397","SARL_v6n4gu2b5u","msl000120","infreq_resp","","","img/orange_2bandit_a.png","70","img/orange_2bandit_a.png","68","test","","","","","","","","","4","","","","","","","","","","",""
"null","","1164552","SARL_v6n4gu2b5u","msl000120","fixation","","","img/fixation.png","null","","","test","","","","","","","","","","","","","","","","","","","",""
"612","","1165169","SARL_v6n4gu2b5u","msl000120","freq","","","img/green_2bandit_a2.png","70","","70","test","1","","","square","circle","83","80","8","4","0.9375","","","","","","","","","",""
"null","","1165362","SARL_v6n4gu2b5u","msl000120","freq_resp","","","img/green_2bandit_a.png","70","img/green_2bandit_a.png","70","test","","","","","","","","","4","","","","","","","","","","",""
"null","","1165518","SARL_v6n4gu2b5u","msl000120","fixation","","","img/fixation.png","null","","","test","","","","","","","","","","","","","","","","","","","",""
"314","","1165837","SARL_v6n4gu2b5u","msl000120","freq","","","img/green_2bandit_a2.png","70","","70","test","1","","","square","circle","84","81","9","4","0.9382716049382716","","","","","","","","","",""
"null","","1166329","SARL_v6n4gu2b5u","msl000120","freq_resp","","","img/green_2bandit_a.png","70","img/green_2bandit_a.png","70","test","","","","","","","","","4","","","","","","","","","","",""
"null","","1166484","SARL_v6n4gu2b5u","msl000120","fixation","","","img/fixation.png","null","","","test","","","","","","","","","","","","","","","","","","","",""
"281","","1166770","SARL_v6n4gu2b5u","msl000120","freq","","","img/green_2bandit_a2.png","70","","70","test","1","","","square","circle","85","82","10","4","0.9390243902439024","","","","","","","","","",""
"null","","1167294","SARL_v6n4gu2b5u","msl000120","freq_resp","","","img/green_2bandit_a.png","70","img/green_2bandit_a.png","70","test","","","","","","","","","4","","","","","","","","","","",""
"null","","1167450","SARL_v6n4gu2b5u","msl000120","fixation","","","img/fixation.png","null","","","test","","","","","","","","","","","","","","","","","","","",""
"263","","1167719","SARL_v6n4gu2b5u","msl000120","freq","","","img/green_2bandit_a2.png","70","","70","test","1","","","square","circle","86","83","11","4","0.9397590361445783","","","","","","","","","",""
"null","","1168261","SARL_v6n4gu2b5u","msl000120","freq_resp","","","img/green_2bandit_a.png","70","img/green_2bandit_a.png","70","test","","","","","","","","","4","","","","","","","","","","",""
"null","","1168415","SARL_v6n4gu2b5u","msl000120","fixation","","","img/fixation.png","null","","","test","","","","","","","","","","","","","","","","","","","",""
"286","","1168706","SARL_v6n4gu2b5u","msl000120","freq","","","img/green_2bandit_a2.png","70","","70","test","1","","","square","circle","87","84","12","4","0.9404761904761905","","","","","","","","","",""
"null","","1169226","SARL_v6n4gu2b5u","msl000120","freq_resp","","","img/green_2bandit_a.png","70","img/green_2bandit_a.png","70","test","","","","","","","","","4","","","","","","","","","","",""
"null","","1169382","SARL_v6n4gu2b5u","msl000120","fixation","","","img/fixation.png","null","","","test","","","","","","","","","","","","","","","","","","","",""
"88","","1169474","SARL_v6n4gu2b5u","msl000120","infreq","","","img/orange_2bandit_a2.png","70","","68","test","0","","","square","circle","88","85","13","4","0.9294117647058824","","","","","","","","","",""
"null","","1170192","SARL_v6n4gu2b5u","msl000120","infreq_resp","","","img/orange_2bandit_a.png","70","img/orange_2bandit_a.png","68","test","","","","","","","","","4","","","","","","","","","","",""
"null","","1170348","SARL_v6n4gu2b5u","msl000120","fixation","","","img/fixation.png","null","","","test","","","","","","","","","","","","","","","","","","","",""
"31","","1170384","SARL_v6n4gu2b5u","msl000120","freq","","","img/green_2bandit_a2.png","68","","70","test","0","","","square","circle","89","86","14","4","0.9186046511627907","","","","","","","","","",""
"null","","1171157","SARL_v6n4gu2b5u","msl000120","freq_resp","","","img/green_2bandit_a.png","68","img/green_2bandit_a.png","70","test","","","","","","","","","4","","","","","","","","","","",""
"null","","1171313","SARL_v6n4gu2b5u","msl000120","fixation","","","img/fixation.png","null","","","test","","","","","","","","","","","","","","","","","","","",""
"486","","1171803","SARL_v6n4gu2b5u","msl000120","freq","","","img/green_2bandit_a2.png","70","","70","test","1","","","square","circle","90","87","15","4","0.9195402298850575","","","","","","","","","",""
"null","","1172122","SARL_v6n4gu2b5u","msl000120","freq_resp","","","img/green_2bandit_a.png","70","img/green_2bandit_a.png","70","test","","","","","","","","","4","","","","","","","","","","",""
"null","","1172278","SARL_v6n4gu2b5u","msl000120","fixation","","","img/fixation.png","null","","","test","","","","","","","","","","","","","","","","","","","",""
"371","","1172651","SARL_v6n4gu2b5u","msl000120","freq","","","img/green_2bandit_a2.png","70","","70","test","1","","","square","circle","91","88","16","4","0.9204545454545454","","","","","","","","","",""
"null","","1173086","SARL_v6n4gu2b5u","msl000120","freq_resp","","","img/green_2bandit_a.png","70","img/green_2bandit_a.png","70","test","","","","","","","","","4","","","","","","","","","","",""
"null","","1173241","SARL_v6n4gu2b5u","msl000120","fixation","","","img/fixation.png","null","","","test","","","","","","","","","","","","","","","","","","","",""
"210","","1173457","SARL_v6n4gu2b5u","msl000120","freq","","","img/green_2bandit_a2.png","70","","70","test","1","","","square","circle","92","89","17","4","0.9213483146067416","","","","","","","","","",""
"null","","1174052","SARL_v6n4gu2b5u","msl000120","freq_resp","","","img/green_2bandit_a.png","70","img/green_2bandit_a.png","70","test","","","","","","","","","4","","","","","","","","","","",""
"null","","1174209","SARL_v6n4gu2b5u","msl000120","fixation","","","img/fixation.png","null","","","test","","","","","","","","","","","","","","","","","","","",""
"60","","1174274","SARL_v6n4gu2b5u","msl000120","freq","","","img/green_2bandit_a2.png","70","","70","test","1","","","square","circle","93","90","18","4","0.9222222222222223","","","","","","","","","",""
"null","","1175020","SARL_v6n4gu2b5u","msl000120","freq_resp","","","img/green_2bandit_a.png","70","img/green_2bandit_a.png","70","test","","","","","","","","","4","","","","","","","","","","",""
"null","","1175176","SARL_v6n4gu2b5u","msl000120","fixation","","","img/fixation.png","null","","","test","","","","","","","","","","","","","","","","","","","",""
"97","","1175278","SARL_v6n4gu2b5u","msl000120","freq","","","img/green_2bandit_a2.png","70","","70","test","1","","","square","circle","94","91","19","4","0.9230769230769231","","","","","","","","","",""
"null","","1175986","SARL_v6n4gu2b5u","msl000120","freq_resp","","","img/green_2bandit_a.png","70","img/green_2bandit_a.png","70","test","","","","","","","","","4","","","","","","","","","","",""
"null","","1176141","SARL_v6n4gu2b5u","msl000120","fixation","","","img/fixation.png","null","","","test","","","","","","","","","","","","","","","","","","","",""
"99","","1176246","SARL_v6n4gu2b5u","msl000120","freq","","","img/green_2bandit_a2.png","70","","70","test","1","","","square","circle","95","92","20","4","0.9239130434782609","","","","","","","","","",""
"null","","1176953","SARL_v6n4gu2b5u","msl000120","freq_resp","","","img/green_2bandit_a.png","70","img/green_2bandit_a.png","70","test","","","","","","","","","4","","","","","","","","","","",""
"null","","1177108","SARL_v6n4gu2b5u","msl000120","fixation","","","img/fixation.png","null","","","test","","","","","","","","","","","","","","","","","","","",""
"468","","1177581","SARL_v6n4gu2b5u","msl000120","freq","","","img/green_2bandit_a2.png","70","","70","test","1","","","square","circle","96","93","21","4","0.9247311827956989","","","","","","","","","",""
"null","","1177918","SARL_v6n4gu2b5u","msl000120","freq_resp","","","img/green_2bandit_a.png","70","img/green_2bandit_a.png","70","test","","","","","","","","","4","","","","","","","","","","",""
"null","","1178074","SARL_v6n4gu2b5u","msl000120","fixation","","","img/fixation.png","null","","","test","","","","","","","","","","","","","","","","","","","",""
"452","","1178531","SARL_v6n4gu2b5u","msl000120","infreq","","","img/orange_2bandit_a2.png","68","","68","test","1","","","square","circle","97","94","22","4","0.925531914893617","","","","","","","","","",""
"null","","1178884","SARL_v6n4gu2b5u","msl000120","infreq_resp","","","img/orange_2bandit_a.png","68","img/orange_2bandit_a.png","68","test","","","","","","","","","4","","","","","","","","","","",""
"null","","1179039","SARL_v6n4gu2b5u","msl000120","fixation","","","img/fixation.png","null","","","test","","","","","","","","","","","","","","","","","","","",""
"344","","1179388","SARL_v6n4gu2b5u","msl000120","freq","","","img/green_2bandit_a2.png","70","","70","test","1","","","square","circle","98","95","23","4","0.9263157894736842","","","","","","","","","",""
"null","","1179848","SARL_v6n4gu2b5u","msl000120","freq_resp","","","img/green_2bandit_a.png","70","img/green_2bandit_a.png","70","test","","","","","","","","","4","","","","","","","","","","",""
"null","","1180004","SARL_v6n4gu2b5u","msl000120","fixation","","","img/fixation.png","null","","","test","","","","","","","","","","","","","","","","","","","",""
"269","","1180276","SARL_v6n4gu2b5u","msl000120","freq","","","img/green_2bandit_a2.png","70","","70","test","1","","","square","circle","99","96","24","4","0.9270833333333334","","","","","","","","","",""
"null","","1180813","SARL_v6n4gu2b5u","msl000120","freq_resp","","","img/green_2bandit_a.png","70","img/green_2bandit_a.png","70","test","","","","","","","","","4","","","","","","","","","","",""
"null","","1180968","SARL_v6n4gu2b5u","msl000120","fixation","","","img/fixation.png","null","","","test","","","","","","","","","","","","","","","","","","","",""
"532","","1181506","SARL_v6n4gu2b5u","msl000120","rl","","","img/black_2bandit_a2.png","74","","0","test","","","1","square","circle","100","","0","4","","74","0.2","0.8","0.44974950056180474","0.8","0.2","0.8","square","4","0"
"null","","1182262","SARL_v6n4gu2b5u","msl000120","feedback","","","img/yay_L_a.png","null","","na","test","","","","","","","","","4","","74","0.2","0.8","","","","0.8","","4",""
"313","","1182580","SARL_v6n4gu2b5u","msl000120","freq","","","img/green_2bandit_a2.png","70","","70","test","1","","","square","circle","101","97","1","5","0.9278350515463918","","","","","","","","","",""
"null","","1183072","SARL_v6n4gu2b5u","msl000120","freq_resp","","","img/green_2bandit_a.png","70","img/green_2bandit_a.png","70","test","","","","","","","","","5","","","","","","","","","","",""
"null","","1183228","SARL_v6n4gu2b5u","msl000120","fixation","","","img/fixation.png","null","","","test","","","","","","","","","","","","","","","","","","","",""
"406","","1183639","SARL_v6n4gu2b5u","msl000120","freq","","","img/green_2bandit_a2.png","70","","70","test","1","","","square","circle","102","98","2","5","0.9285714285714286","","","","","","","","","",""
"null","","1184038","SARL_v6n4gu2b5u","msl000120","freq_resp","","","img/green_2bandit_a.png","70","img/green_2bandit_a.png","70","test","","","","","","","","","5","","","","","","","","","","",""
"null","","1184195","SARL_v6n4gu2b5u","msl000120","fixation","","","img/fixation.png","null","","","test","","","","","","","","","","","","","","","","","","","",""
"263","","1184463","SARL_v6n4gu2b5u","msl000120","freq","","","img/green_2bandit_a2.png","70","","70","test","1","","","square","circle","103","99","3","5","0.9292929292929293","","","","","","","","","",""
"null","","1185007","SARL_v6n4gu2b5u","msl000120","freq_resp","","","img/green_2bandit_a.png","70","img/green_2bandit_a.png","70","test","","","","","","","","","5","","","","","","","","","","",""
"null","","1185161","SARL_v6n4gu2b5u","msl000120","fixation","","","img/fixation.png","null","","","test","","","","","","","","","","","","","","","","","","","",""
"134","","1185301","SARL_v6n4gu2b5u","msl000120","freq","","","img/green_2bandit_a2.png","70","","70","test","1","","","square","circle","104","100","4","5","0.93","","","","","","","","","",""
"null","","1185972","SARL_v6n4gu2b5u","msl000120","freq_resp","","","img/green_2bandit_a.png","70","img/green_2bandit_a.png","70","test","","","","","","","","","5","","","","","","","","","","",""
"null","","1186126","SARL_v6n4gu2b5u","msl000120","fixation","","","img/fixation.png","null","","","test","","","","","","","","","","","","","","","","","","","",""
"99","","1186230","SARL_v6n4gu2b5u","msl000120","freq","","","img/green_2bandit_a2.png","70","","70","test","1","","","square","circle","105","101","5","5","0.9306930693069307","","","","","","","","","",""
"null","","1186937","SARL_v6n4gu2b5u","msl000120","freq_resp","","","img/green_2bandit_a.png","70","img/green_2bandit_a.png","70","test","","","","","","","","","5","","","","","","","","","","",""
"null","","1187092","SARL_v6n4gu2b5u","msl000120","fixation","","","img/fixation.png","null","","","test","","","","","","","","","","","","","","","","","","","",""
"105","","1187203","SARL_v6n4gu2b5u","msl000120","freq","","","img/green_2bandit_a2.png","70","","70","test","1","","","square","circle","106","102","6","5","0.9313725490196079","","","","","","","","","",""
"null","","1187903","SARL_v6n4gu2b5u","msl000120","freq_resp","","","img/green_2bandit_a.png","70","img/green_2bandit_a.png","70","test","","","","","","","","","5","","","","","","","","","","",""
"null","","1188058","SARL_v6n4gu2b5u","msl000120","fixation","","","img/fixation.png","null","","","test","","","","","","","","","","","","","","","","","","","",""
"131","","1188193","SARL_v6n4gu2b5u","msl000120","freq","","","img/green_2bandit_a2.png","70","","70","test","1","","","square","circle","107","103","7","5","0.9320388349514563","","","","","","","","","",""
"null","","1188867","SARL_v6n4gu2b5u","msl000120","freq_resp","","","img/green_2bandit_a.png","70","img/green_2bandit_a.png","70","test","","","","","","","","","5","","","","","","","","","","",""
"null","","1189023","SARL_v6n4gu2b5u","msl000120","fixation","","","img/fixation.png","null","","","test","","","","","","","","","","","","","","","","","","","",""
"68","","1189095","SARL_v6n4gu2b5u","msl000120","infreq","","","img/orange_2bandit_a2.png","70","","68","test","0","","","square","circle","108","104","8","5","0.9230769230769231","","","","","","","","","",""
"null","","1189833","SARL_v6n4gu2b5u","msl000120","infreq_resp","","","img/orange_2bandit_a.png","70","img/orange_2bandit_a.png","68","test","","","","","","","","","5","","","","","","","","","","",""
"null","","1189989","SARL_v6n4gu2b5u","msl000120","fixation","","","img/fixation.png","null","","","test","","","","","","","","","","","","","","","","","","","",""
"410","","1190405","SARL_v6n4gu2b5u","msl000120","freq","","","img/green_2bandit_a2.png","70","","70","test","1","","","square","circle","109","105","9","5","0.9238095238095239","","","","","","","","","",""
"null","","1190799","SARL_v6n4gu2b5u","msl000120","freq_resp","","","img/green_2bandit_a.png","70","img/green_2bandit_a.png","70","test","","","","","","","","","5","","","","","","","","","","",""
"null","","1190955","SARL_v6n4gu2b5u","msl000120","fixation","","","img/fixation.png","null","","","test","","","","","","","","","","","","","","","","","","","",""
"531","","1191491","SARL_v6n4gu2b5u","msl000120","infreq","","","img/orange_2bandit_a2.png","68","","68","test","1","","","square","circle","110","106","10","5","0.9245283018867925","","","","","","","","","",""
"null","","1191766","SARL_v6n4gu2b5u","msl000120","infreq_resp","","","img/orange_2bandit_a.png","68","img/orange_2bandit_a.png","68","test","","","","","","","","","5","","","","","","","","","","",""
"null","","1191921","SARL_v6n4gu2b5u","msl000120","fixation","","","img/fixation.png","null","","","test","","","","","","","","","","","","","","","","","","","",""
"392","","1192318","SARL_v6n4gu2b5u","msl000120","freq","","","img/green_2bandit_a2.png","70","","70","test","1","","","square","circle","111","107","11","5","0.9252336448598131","","","","","","","","","",""
"null","","1192731","SARL_v6n4gu2b5u","msl000120","freq_resp","","","img/green_2bandit_a.png","70","img/green_2bandit_a.png","70","test","","","","","","","","","5","","","","","","","","","","",""
"null","","1192887","SARL_v6n4gu2b5u","msl000120","fixation","","","img/fixation.png","null","","","test","","","","","","","","","","","","","","","","","","","",""
"394","","1193286","SARL_v6n4gu2b5u","msl000120","freq","","","img/green_2bandit_a2.png","70","","70","test","1","","","square","circle","112","108","12","5","0.9259259259259259","","","","","","","","","",""
"null","","1193697","SARL_v6n4gu2b5u","msl000120","freq_resp","","","img/green_2bandit_a.png","70","img/green_2bandit_a.png","70","test","","","","","","","","","5","","","","","","","","","","",""
"null","","1193853","SARL_v6n4gu2b5u","msl000120","fixation","","","img/fixation.png","null","","","test","","","","","","","","","","","","","","","","","","","",""
"308","","1194164","SARL_v6n4gu2b5u","msl000120","freq","","","img/green_2bandit_a2.png","70","","70","test","1","","","square","circle","113","109","13","5","0.926605504587156","","","","","","","","","",""
"null","","1194662","SARL_v6n4gu2b5u","msl000120","freq_resp","","","img/green_2bandit_a.png","70","img/green_2bandit_a.png","70","test","","","","","","","","","5","","","","","","","","","","",""
"null","","1194817","SARL_v6n4gu2b5u","msl000120","fixation","","","img/fixation.png","null","","","test","","","","","","","","","","","","","","","","","","","",""
"303","","1195124","SARL_v6n4gu2b5u","msl000120","freq","","","img/green_2bandit_a2.png","70","","70","test","1","","","square","circle","114","110","14","5","0.9272727272727272","","","","","","","","","",""
"null","","1195627","SARL_v6n4gu2b5u","msl000120","freq_resp","","","img/green_2bandit_a.png","70","img/green_2bandit_a.png","70","test","","","","","","","","","5","","","","","","","","","","",""
"null","","1195782","SARL_v6n4gu2b5u","msl000120","fixation","","","img/fixation.png","null","","","test","","","","","","","","","","","","","","","","","","","",""
"283","","1196071","SARL_v6n4gu2b5u","msl000120","freq","","","img/green_2bandit_a2.png","70","","70","test","1","","","square","circle","115","111","15","5","0.9279279279279279","","","","","","","","","",""
"null","","1196594","SARL_v6n4gu2b5u","msl000120","freq_resp","","","img/green_2bandit_a.png","70","img/green_2bandit_a.png","70","test","","","","","","","","","5","","","","","","","","","","",""
"null","","1196749","SARL_v6n4gu2b5u","msl000120","fixation","","","img/fixation.png","null","","","test","","","","","","","","","","","","","","","","","","","",""
"268","","1197021","SARL_v6n4gu2b5u","msl000120","freq","","","img/green_2bandit_a2.png","70","","70","test","1","","","square","circle","116","112","16","5","0.9285714285714286","","","","","","","","","",""
"null","","1197559","SARL_v6n4gu2b5u","msl000120","freq_resp","","","img/green_2bandit_a.png","70","img/green_2bandit_a.png","70","test","","","","","","","","","5","","","","","","","","","","",""
"null","","1197713","SARL_v6n4gu2b5u","msl000120","fixation","","","img/fixation.png","null","","","test","","","","","","","","","","","","","","","","","","","",""
"251","","1197969","SARL_v6n4gu2b5u","msl000120","freq","","","img/green_2bandit_a2.png","70","","70","test","1","","","square","circle","117","113","17","5","0.9292035398230089","","","","","","","","","",""
"null","","1198524","SARL_v6n4gu2b5u","msl000120","freq_resp","","","img/green_2bandit_a.png","70","img/green_2bandit_a.png","70","test","","","","","","","","","5","","","","","","","","","","",""
"null","","1198679","SARL_v6n4gu2b5u","msl000120","fixation","","","img/fixation.png","null","","","test","","","","","","","","","","","","","","","","","","","",""
"319","","1199003","SARL_v6n4gu2b5u","msl000120","freq","","","img/green_2bandit_a2.png","70","","70","test","1","","","square","circle","118","114","18","5","0.9298245614035088","","","","","","","","","",""
"null","","1199489","SARL_v6n4gu2b5u","msl000120","freq_resp","","","img/green_2bandit_a.png","70","img/green_2bandit_a.png","70","test","","","","","","","","","5","","","","","","","","","","",""
"null","","1199644","SARL_v6n4gu2b5u","msl000120","fixation","","","img/fixation.png","null","","","test","","","","","","","","","","","","","","","","","","","",""
"322","","1199972","SARL_v6n4gu2b5u","msl000120","freq","","","img/green_2bandit_a2.png","70","","70","test","1","","","square","circle","119","115","19","5","0.9304347826086956","","","","","","","","","",""
"null","","1200456","SARL_v6n4gu2b5u","msl000120","freq_resp","","","img/green_2bandit_a.png","70","img/green_2bandit_a.png","70","test","","","","","","","","","5","","","","","","","","","","",""
"null","","1200611","SARL_v6n4gu2b5u","msl000120","fixation","","","img/fixation.png","null","","","test","","","","","","","","","","","","","","","","","","","",""
"253","","1200870","SARL_v6n4gu2b5u","msl000120","freq","","","img/green_2bandit_a2.png","70","","70","test","1","","","square","circle","120","116","20","5","0.9310344827586207","","","","","","","","","",""
"null","","1201423","SARL_v6n4gu2b5u","msl000120","freq_resp","","","img/green_2bandit_a.png","70","img/green_2bandit_a.png","70","test","","","","","","","","","5","","","","","","","","","","",""
"null","","1201579","SARL_v6n4gu2b5u","msl000120","fixation","","","img/fixation.png","null","","","test","","","","","","","","","","","","","","","","","","","",""
"136","","1201718","SARL_v6n4gu2b5u","msl000120","infreq","","","img/orange_2bandit_a2.png","70","","68","test","0","","","square","circle","121","117","21","5","0.9230769230769231","","","","","","","","","",""
"null","","1202388","SARL_v6n4gu2b5u","msl000120","infreq_resp","","","img/orange_2bandit_a.png","70","img/orange_2bandit_a.png","68","test","","","","","","","","","5","","","","","","","","","","",""
"null","","1202544","SARL_v6n4gu2b5u","msl000120","fixation","","","img/fixation.png","null","","","test","","","","","","","","","","","","","","","","","","","",""
"518","","1203066","SARL_v6n4gu2b5u","msl000120","freq","","","img/green_2bandit_a2.png","70","","70","test","1","","","square","circle","122","118","22","5","0.923728813559322","","","","","","","","","",""
"null","","1203352","SARL_v6n4gu2b5u","msl000120","freq_resp","","","img/green_2bandit_a.png","70","img/green_2bandit_a.png","70","test","","","","","","","","","5","","","","","","","","","","",""
"null","","1203507","SARL_v6n4gu2b5u","msl000120","fixation","","","img/fixation.png","null","","","test","","","","","","","","","","","","","","","","","","","",""
"315","","1203827","SARL_v6n4gu2b5u","msl000120","freq","","","img/green_2bandit_a2.png","70","","70","test","1","","","square","circle","123","119","23","5","0.9243697478991597","","","","","","","","","",""
"null","","1204318","SARL_v6n4gu2b5u","msl000120","freq_resp","","","img/green_2bandit_a.png","70","img/green_2bandit_a.png","70","test","","","","","","","","","5","","","","","","","","","","",""
"null","","1204473","SARL_v6n4gu2b5u","msl000120","fixation","","","img/fixation.png","null","","","test","","","","","","","","","","","","","","","","","","","",""
"292","","1204770","SARL_v6n4gu2b5u","msl000120","freq","","","img/green_2bandit_a2.png","70","","70","test","1","","","square","circle","124","120","24","5","0.925","","","","","","","","","",""
"null","","1205284","SARL_v6n4gu2b5u","msl000120","freq_resp","","","img/green_2bandit_a.png","70","img/green_2bandit_a.png","70","test","","","","","","","","","5","","","","","","","","","","",""
"null","","1205440","SARL_v6n4gu2b5u","msl000120","fixation","","","img/fixation.png","null","","","test","","","","","","","","","","","","","","","","","","","",""
"88","","1205534","SARL_v6n4gu2b5u","msl000120","freq","","","img/green_2bandit_a2.png","70","","70","test","1","","","square","circle","125","121","25","5","0.9256198347107438","","","","","","","","","",""
"null","","1206251","SARL_v6n4gu2b5u","msl000120","freq_resp","","","img/green_2bandit_a.png","70","img/green_2bandit_a.png","70","test","","","","","","","","","5","","","","","","","","","","",""
"null","","1206406","SARL_v6n4gu2b5u","msl000120","fixation","","","img/fixation.png","null","","","test","","","","","","","","","","","","","","","","","","","",""
"553","","1206963","SARL_v6n4gu2b5u","msl000120","rl","","","img/black_2bandit_a2.png","75","","0","test","","","0","square","circle","126","","0","5","","75","0.2","0.8","0.6821608340061518","0.8","0.2","0.2","circle","5","0"
"null","","1207718","SARL_v6n4gu2b5u","msl000120","feedback","","","img/boo_R_a.png","null","","na","test","","","","","","","","","5","","75","0.2","0.8","","","","0.2","","5",""
"758","","1208481","SARL_v6n4gu2b5u","msl000120","freq","","","img/green_2bandit_a2.png","70","","70","test","1","","","square","circle","127","122","1","6","0.9262295081967213","","","","","","","","","",""
"null","","1208528","SARL_v6n4gu2b5u","msl000120","freq_resp","","","img/green_2bandit_a.png","70","img/green_2bandit_a.png","70","test","","","","","","","","","6","","","","","","","","","","",""
"null","","1208685","SARL_v6n4gu2b5u","msl000120","fixation","","","img/fixation.png","null","","","test","","","","","","","","","","","","","","","","","","","",""
"624","","1209315","SARL_v6n4gu2b5u","msl000120","freq","","","img/green_2bandit_a2.png","70","","70","test","1","","","square","circle","128","123","2","6","0.926829268292683","","","","","","","","","",""
"null","","1209496","SARL_v6n4gu2b5u","msl000120","freq_resp","","","img/green_2bandit_a.png","70","img/green_2bandit_a.png","70","test","","","","","","","","","6","","","","","","","","","","",""
"null","","1209651","SARL_v6n4gu2b5u","msl000120","fixation","","","img/fixation.png","null","","","test","","","","","","","","","","","","","","","","","","","",""
"400","","1210056","SARL_v6n4gu2b5u","msl000120","freq","","","img/green_2bandit_a2.png","70","","70","test","1","","","square","circle","129","124","3","6","0.9274193548387096","","","","","","","","","",""
"null","","1210461","SARL_v6n4gu2b5u","msl000120","freq_resp","","","img/green_2bandit_a.png","70","img/green_2bandit_a.png","70","test","","","","","","","","","6","","","","","","","","","","",""
"null","","1210616","SARL_v6n4gu2b5u","msl000120","fixation","","","img/fixation.png","null","","","test","","","","","","","","","","","","","","","","","","","",""
"242","","1210865","SARL_v6n4gu2b5u","msl000120","infreq","","","img/orange_2bandit_a2.png","70","","68","test","0","","","square","circle","130","125","4","6","0.92","","","","","","","","","",""
"null","","1211428","SARL_v6n4gu2b5u","msl000120","infreq_resp","","","img/orange_2bandit_a.png","70","img/orange_2bandit_a.png","68","test","","","","","","","","","6","","","","","","","","","","",""
"null","","1211583","SARL_v6n4gu2b5u","msl000120","fixation","","","img/fixation.png","null","","","test","","","","","","","","","","","","","","","","","","","",""
"501","","1212089","SARL_v6n4gu2b5u","msl000120","freq","","","img/green_2bandit_a2.png","70","","70","test","1","","","square","circle","131","126","5","6","0.9206349206349206","","","","","","","","","",""
"null","","1212393","SARL_v6n4gu2b5u","msl000120","freq_resp","","","img/green_2bandit_a.png","70","img/green_2bandit_a.png","70","test","","","","","","","","","6","","","","","","","","","","",""
"null","","1212548","SARL_v6n4gu2b5u","msl000120","fixation","","","img/fixation.png","null","","","test","","","","","","","","","","","","","","","","","","","",""
"308","","1212862","SARL_v6n4gu2b5u","msl000120","freq","","","img/green_2bandit_a2.png","70","","70","test","1","","","square","circle","132","127","6","6","0.9212598425196851","","","","","","","","","",""
"null","","1213358","SARL_v6n4gu2b5u","msl000120","freq_resp","","","img/green_2bandit_a.png","70","img/green_2bandit_a.png","70","test","","","","","","","","","6","","","","","","","","","","",""
"null","","1213514","SARL_v6n4gu2b5u","msl000120","fixation","","","img/fixation.png","null","","","test","","","","","","","","","","","","","","","","","","","",""
"286","","1213805","SARL_v6n4gu2b5u","msl000120","freq","","","img/green_2bandit_a2.png","70","","70","test","1","","","square","circle","133","128","7","6","0.921875","","","","","","","","","",""
"null","","1214323","SARL_v6n4gu2b5u","msl000120","freq_resp","","","img/green_2bandit_a.png","70","img/green_2bandit_a.png","70","test","","","","","","","","","6","","","","","","","","","","",""
"null","","1214480","SARL_v6n4gu2b5u","msl000120","fixation","","","img/fixation.png","null","","","test","","","","","","","","","","","","","","","","","","","",""
"441","","1214925","SARL_v6n4gu2b5u","msl000120","freq","","","img/green_2bandit_a2.png","70","","70","test","1","","","square","circle","134","129","8","6","0.9224806201550387","","","","","","","","","",""
"null","","1215290","SARL_v6n4gu2b5u","msl000120","freq_resp","","","img/green_2bandit_a.png","70","img/green_2bandit_a.png","70","test","","","","","","","","","6","","","","","","","","","","",""
"null","","1215445","SARL_v6n4gu2b5u","msl000120","fixation","","","img/fixation.png","null","","","test","","","","","","","","","","","","","","","","","","","",""
"488","","1215937","SARL_v6n4gu2b5u","msl000120","freq","","","img/green_2bandit_a2.png","70","","70","test","1","","","square","circle","135","130","9","6","0.9230769230769231","","","","","","","","","",""
"null","","1216256","SARL_v6n4gu2b5u","msl000120","freq_resp","","","img/green_2bandit_a.png","70","img/green_2bandit_a.png","70","test","","","","","","","","","6","","","","","","","","","","",""
"null","","1216411","SARL_v6n4gu2b5u","msl000120","fixation","","","img/fixation.png","null","","","test","","","","","","","","","","","","","","","","","","","",""
"288","","1216704","SARL_v6n4gu2b5u","msl000120","freq","","","img/green_2bandit_a2.png","70","","70","test","1","","","square","circle","136","131","10","6","0.9236641221374046","","","","","","","","","",""
"null","","1217221","SARL_v6n4gu2b5u","msl000120","freq_resp","","","img/green_2bandit_a.png","70","img/green_2bandit_a.png","70","test","","","","","","","","","6","","","","","","","","","","",""
"null","","1217376","SARL_v6n4gu2b5u","msl000120","fixation","","","img/fixation.png","null","","","test","","","","","","","","","","","","","","","","","","","",""
"288","","1217667","SARL_v6n4gu2b5u","msl000120","freq","","","img/green_2bandit_a2.png","70","","70","test","1","","","square","circle","137","132","11","6","0.9242424242424242","","","","","","","","","",""
"null","","1218184","SARL_v6n4gu2b5u","msl000120","freq_resp","","","img/green_2bandit_a.png","70","img/green_2bandit_a.png","70","test","","","","","","","","","6","","","","","","","","","","",""
"null","","1218340","SARL_v6n4gu2b5u","msl000120","fixation","","","img/fixation.png","null","","","test","","","","","","","","","","","","","","","","","","","",""
"181","","1218527","SARL_v6n4gu2b5u","msl000120","freq","","","img/green_2bandit_a2.png","70","","70","test","1","","","square","circle","138","133","12","6","0.924812030075188","","","","","","","","","",""
"null","","1219151","SARL_v6n4gu2b5u","msl000120","freq_resp","","","img/green_2bandit_a.png","70","img/green_2bandit_a.png","70","test","","","","","","","","","6","","","","","","","","","","",""
"null","","1219307","SARL_v6n4gu2b5u","msl000120","fixation","","","img/fixation.png","null","","","test","","","","","","","","","","","","","","","","","","","",""
"464","","1219775","SARL_v6n4gu2b5u","msl000120","freq","","","img/green_2bandit_a2.png","70","","70","test","1","","","square","circle","139","134","13","6","0.9253731343283582","","","","","","","","","",""
"null","","1220116","SARL_v6n4gu2b5u","msl000120","freq_resp","","","img/green_2bandit_a.png","70","img/green_2bandit_a.png","70","test","","","","","","","","","6","","","","","","","","","","",""
"null","","1220272","SARL_v6n4gu2b5u","msl000120","fixation","","","img/fixation.png","null","","","test","","","","","","","","","","","","","","","","","","","",""
"501","","1220778","SARL_v6n4gu2b5u","msl000120","freq","","","img/green_2bandit_a2.png","70","","70","test","1","","","square","circle","140","135","14","6","0.9259259259259259","","","","","","","","","",""
"null","","1221082","SARL_v6n4gu2b5u","msl000120","freq_resp","","","img/green_2bandit_a.png","70","img/green_2bandit_a.png","70","test","","","","","","","","","6","","","","","","","","","","",""
"null","","1221238","SARL_v6n4gu2b5u","msl000120","fixation","","","img/fixation.png","null","","","test","","","","","","","","","","","","","","","","","","","",""
"278","","1221520","SARL_v6n4gu2b5u","msl000120","freq","","","img/green_2bandit_a2.png","70","","70","test","1","","","square","circle","141","136","15","6","0.9264705882352942","","","","","","","","","",""
"null","","1222047","SARL_v6n4gu2b5u","msl000120","freq_resp","","","img/green_2bandit_a.png","70","img/green_2bandit_a.png","70","test","","","","","","","","","6","","","","","","","","","","",""
"null","","1222202","SARL_v6n4gu2b5u","msl000120","fixation","","","img/fixation.png","null","","","test","","","","","","","","","","","","","","","","","","","",""
"292","","1222500","SARL_v6n4gu2b5u","msl000120","freq","","","img/green_2bandit_a2.png","70","","70","test","1","","","square","circle","142","137","16","6","0.927007299270073","","","","","","","","","",""
"null","","1223012","SARL_v6n4gu2b5u","msl000120","freq_resp","","","img/green_2bandit_a.png","70","img/green_2bandit_a.png","70","test","","","","","","","","","6","","","","","","","","","","",""
"null","","1223168","SARL_v6n4gu2b5u","msl000120","fixation","","","img/fixation.png","null","","","test","","","","","","","","","","","","","","","","","","","",""
"682","","1223855","SARL_v6n4gu2b5u","msl000120","infreq","","","img/orange_2bandit_a2.png","68","","68","test","1","","","square","circle","143","138","17","6","0.927536231884058","","","","","","","","","",""
"null","","1223978","SARL_v6n4gu2b5u","msl000120","infreq_resp","","","img/orange_2bandit_a.png","68","img/orange_2bandit_a.png","68","test","","","","","","","","","6","","","","","","","","","","",""
"null","","1224134","SARL_v6n4gu2b5u","msl000120","fixation","","","img/fixation.png","null","","","test","","","","","","","","","","","","","","","","","","","",""
"520","","1224659","SARL_v6n4gu2b5u","msl000120","freq","","","img/green_2bandit_a2.png","70","","70","test","1","","","square","circle","144","139","18","6","0.9280575539568345","","","","","","","","","",""
"null","","1224945","SARL_v6n4gu2b5u","msl000120","freq_resp","","","img/green_2bandit_a.png","70","img/green_2bandit_a.png","70","test","","","","","","","","","6","","","","","","","","","","",""
"null","","1225100","SARL_v6n4gu2b5u","msl000120","fixation","","","img/fixation.png","null","","","test","","","","","","","","","","","","","","","","","","","",""
"395","","1225500","SARL_v6n4gu2b5u","msl000120","freq","","","img/green_2bandit_a2.png","70","","70","test","1","","","square","circle","145","140","19","6","0.9285714285714286","","","","","","","","","",""
"null","","1225911","SARL_v6n4gu2b5u","msl000120","freq_resp","","","img/green_2bandit_a.png","70","img/green_2bandit_a.png","70","test","","","","","","","","","6","","","","","","","","","","",""
"null","","1226066","SARL_v6n4gu2b5u","msl000120","fixation","","","img/fixation.png","null","","","test","","","","","","","","","","","","","","","","","","","",""
"140","","1226210","SARL_v6n4gu2b5u","msl000120","freq","","","img/green_2bandit_a2.png","70","","70","test","1","","","square","circle","146","141","20","6","0.9290780141843972","","","","","","","","","",""
"null","","1226876","SARL_v6n4gu2b5u","msl000120","freq_resp","","","img/green_2bandit_a.png","70","img/green_2bandit_a.png","70","test","","","","","","","","","6","","","","","","","","","","",""
"null","","1227031","SARL_v6n4gu2b5u","msl000120","fixation","","","img/fixation.png","null","","","test","","","","","","","","","","","","","","","","","","","",""
"428","","1227464","SARL_v6n4gu2b5u","msl000120","infreq","","","img/orange_2bandit_a2.png","68","","68","test","1","","","square","circle","147","142","21","6","0.9295774647887324","","","","","","","","","",""
"null","","1227842","SARL_v6n4gu2b5u","msl000120","infreq_resp","","","img/orange_2bandit_a.png","68","img/orange_2bandit_a.png","68","test","","","","","","","","","6","","","","","","","","","","",""
"null","","1227997","SARL_v6n4gu2b5u","msl000120","fixation","","","img/fixation.png","null","","","test","","","","","","","","","","","","","","","","","","","",""
"269","","1228271","SARL_v6n4gu2b5u","msl000120","freq","","","img/green_2bandit_a2.png","70","","70","test","1","","","square","circle","148","143","22","6","0.9300699300699301","","","","","","","","","",""
