"rt","responses","time_elapsed","subject","demoID","trialType","rlType","attType","stimulus","key_press","stim","corrresp","phase","corr","pracCounter","reward","bandOne","bandTwo","trialNum","attentionNum","attentionRunNum","blockNum","performance","bandChosen","circleVal","squareVal","coin","bandOneVal","bandTwoVal","pReward","shapeChosen","rlNum","badFlag"
"88517","{""Q0"":""msl000062""}","88542","SARL_v6xuywyznv","msl000062","","","","","","","","","","","","","","","","","","","","","","","","","","","",""
"47901","","136450","SARL_v6xuywyznv","msl000062","","","","","","","","","","","","","","","","","","","","","","","","","","","",""
"","","142006","SARL_v6xuywyznv","msl000062","fullscreen","fullscreen","fullscreen","","","","","","","","","","","","","","","","","","","","","","","","",""
"64874","","206886","SARL_v6xuywyznv","msl000062","","","","","","","","","","","","","","","","","","","","","","","","","","","",""
"null","","207692","SARL_v6xuywyznv","msl000062","freqPrac","","","img/green_2bandit_a2.png","null","img/green_2bandit_a2.png","70","prac","0","1","","","","","","","","","","","","","","","","","",""
"null","","208699","SARL_v6xuywyznv","msl000062","feedback","","","img/tooSlow.png","null","","na","prac","","","","","","","","","","","","","","","","","","","",""
"null","","208855","SARL_v6xuywyznv","msl000062","fixation","","","img/fixation.png","null","","","prac","","","","","","","","","","","","","","","","","","","",""
"771","","209632","SARL_v6xuywyznv","msl000062","infreqPrac","","","img/orange_2bandit_a2.png","68","img/orange_2bandit_a2.png","68","prac","1","1","","","","","","","","","","","","","","","","","",""
"771","","209667","SARL_v6xuywyznv","msl000062","infreqPrac_resp","","","img/orange_2bandit_a.png","68","img/orange_2bandit_a.png","68","prac","","","","","","","","","","","","","","","","","","","",""
"null","","209824","SARL_v6xuywyznv","msl000062","fixation","","","img/fixation.png","null","","","prac","","","","","","","","","","","","","","","","","","","",""
"773","","210602","SARL_v6xuywyznv","msl000062","freqPrac","","","img/green_2bandit_a2.png","70","img/green_2bandit_a2.png","70","prac","1","1","","","","","","","","","","","","","","","","","",""
"773","","210635","SARL_v6xuywyznv","msl000062","freqPrac_resp","","","img/green_2bandit_a.png","70","img/green_2bandit_a.png","70","prac","","","","","","","","","","","","","","","","","","","",""
"null","","210791","SARL_v6xuywyznv","msl000062","fixation","","","img/fixation.png","null","","","prac","","","","","","","","","","","","","","","","","","","",""
"489","","211284","SARL_v6xuywyznv","msl000062","infreqPrac","","","img/orange_2bandit_a2.png","68","img/orange_2bandit_a2.png","68","prac","1","1","","","","","","","","","","","","","","","","","",""
"489","","211602","SARL_v6xuywyznv","msl000062","infreqPrac_resp","","","img/orange_2bandit_a.png","68","img/orange_2bandit_a.png","68","prac","","","","","","","","","","","","","","","","","","","",""
"null","","211757","SARL_v6xuywyznv","msl000062","fixation","","","img/fixation.png","null","","","prac","","","","","","","","","","","","","","","","","","","",""
"522","","212284","SARL_v6xuywyznv","msl000062","infreqPrac","","","img/orange_2bandit_a2.png","68","img/orange_2bandit_a2.png","68","prac","1","1","","","","","","","","","","","","","","","","","",""
"522","","212568","SARL_v6xuywyznv","msl000062","infreqPrac_resp","","","img/orange_2bandit_a.png","68","img/orange_2bandit_a.png","68","prac","","","","","","","","","","","","","","","","","","","",""
"null","","212724","SARL_v6xuywyznv","msl000062","fixation","","","img/fixation.png","null","","","prac","","","","","","","","","","","","","","","","","","","",""
"424","","213153","SARL_v6xuywyznv","msl000062","infreqPrac","","","img/orange_2bandit_a2.png","68","img/orange_2bandit_a2.png","68","prac","1","1","","","","","","","","","","","","","","","","","",""
"424","","213535","SARL_v6xuywyznv","msl000062","infreqPrac_resp","","","img/orange_2bandit_a.png","68","img/orange_2bandit_a.png","68","prac","","","","","","","","","","","","","","","","","","","",""
"null","","213690","SARL_v6xuywyznv","msl000062","fixation","","","img/fixation.png","null","","","prac","","","","","","","","","","","","","","","","","","","",""
"389","","214083","SARL_v6xuywyznv","msl000062","freqPrac","","","img/green_2bandit_a2.png","70","img/green_2bandit_a2.png","70","prac","1","1","","","","","","","","","","","","","","","","","",""
"389","","214499","SARL_v6xuywyznv","msl000062","freqPrac_resp","","","img/green_2bandit_a.png","70","img/green_2bandit_a.png","70","prac","","","","","","","","","","","","","","","","","","","",""
"null","","214654","SARL_v6xuywyznv","msl000062","fixation","","","img/fixation.png","null","","","prac","","","","","","","","","","","","","","","","","","","",""
"391","","215049","SARL_v6xuywyznv","msl000062","infreqPrac","","","img/orange_2bandit_a2.png","68","img/orange_2bandit_a2.png","68","prac","1","1","","","","","","","","","","","","","","","","","",""
"391","","215465","SARL_v6xuywyznv","msl000062","infreqPrac_resp","","","img/orange_2bandit_a.png","68","img/orange_2bandit_a.png","68","prac","","","","","","","","","","","","","","","","","","","",""
"null","","215619","SARL_v6xuywyznv","msl000062","fixation","","","img/fixation.png","null","","","prac","","","","","","","","","","","","","","","","","","","",""
"469","","216093","SARL_v6xuywyznv","msl000062","freqPrac","","","img/green_2bandit_a2.png","70","img/green_2bandit_a2.png","70","prac","1","1","","","","","","","","","","","","","","","","","",""
"469","","216431","SARL_v6xuywyznv","msl000062","freqPrac_resp","","","img/green_2bandit_a.png","70","img/green_2bandit_a.png","70","prac","","","","","","","","","","","","","","","","","","","",""
"null","","216585","SARL_v6xuywyznv","msl000062","fixation","","","img/fixation.png","null","","","prac","","","","","","","","","","","","","","","","","","","",""
"482","","217072","SARL_v6xuywyznv","msl000062","freqPrac","","","img/green_2bandit_a2.png","70","img/green_2bandit_a2.png","70","prac","1","1","","","","","","","","","","","","","","","","","",""
"482","","217394","SARL_v6xuywyznv","msl000062","freqPrac_resp","","","img/green_2bandit_a.png","70","img/green_2bandit_a.png","70","prac","","","","","","","","","","","","","","","","","","","",""
"null","","217550","SARL_v6xuywyznv","msl000062","fixation","","","img/fixation.png","null","","","prac","","","","","","","","","","","","","","","","","","","",""
"30494","","248048","SARL_v6xuywyznv","msl000062","","","","","","","","prac","","","","","","","","","","","","","","","","","","","",""
"null","","249554","SARL_v6xuywyznv","msl000062","rlPractice","","","img/black_2bandit_a2.png","null","img/black_2bandit_a2.png","","prac","","","75","","","","","","","","","","","","","","","","",""
"null","","250310","SARL_v6xuywyznv","msl000062","feedback","","","img/tooSlow.png","null","","na","prac","","","","","","","","","","","","","","","","","","","",""
"null","","250465","SARL_v6xuywyznv","msl000062","fixation","","","img/fixation.png","null","","","prac","","","","","","","","","","","","","","","","","","","",""
"837","","251306","SARL_v6xuywyznv","msl000062","rlPractice","","","img/black_2bandit_a2.png","74","img/black_2bandit_a2.png","","prac","","","75","","","","","","","","","","","","","","","","",""
"null","","252062","SARL_v6xuywyznv","msl000062","feedback","","","img/boo_L_a.png","null","","na","prac","","","","","","","","","","","","","","","","","","","",""
"null","","252217","SARL_v6xuywyznv","msl000062","fixation","","","img/fixation.png","null","","","prac","","","","","","","","","","","","","","","","","","","",""
"1299","","253521","SARL_v6xuywyznv","msl000062","rlPractice","","","img/black_2bandit_a2.png","75","img/black_2bandit_a2.png","","prac","","","75","","","","","","","","","","","","","","","","",""
"null","","254278","SARL_v6xuywyznv","msl000062","feedback","","","img/yay_R_a.png","null","","na","prac","","","","","","","","","","","","","","","","","","","",""
"null","","254432","SARL_v6xuywyznv","msl000062","fixation","","","img/fixation.png","null","","","prac","","","","","","","","","","","","","","","","","","","",""
"524","","254962","SARL_v6xuywyznv","msl000062","rlPractice","","","img/black_2bandit_a2.png","75","img/black_2bandit_a2.png","","prac","","","75","","","","","","","","","","","","","","","","",""
"null","","255717","SARL_v6xuywyznv","msl000062","feedback","","","img/yay_R_a.png","null","","na","prac","","","","","","","","","","","","","","","","","","","",""
"null","","255873","SARL_v6xuywyznv","msl000062","fixation","","","img/fixation.png","null","","","prac","","","","","","","","","","","","","","","","","","","",""
"689","","256567","SARL_v6xuywyznv","msl000062","rlPractice","","","img/black_2bandit_a2.png","75","img/black_2bandit_a2.png","","prac","","","75","","","","","","","","","","","","","","","","",""
"null","","257322","SARL_v6xuywyznv","msl000062","feedback","","","img/yay_R_a.png","null","","na","prac","","","","","","","","","","","","","","","","","","","",""
"null","","257478","SARL_v6xuywyznv","msl000062","fixation","","","img/fixation.png","null","","","prac","","","","","","","","","","","","","","","","","","","",""
"801","","258283","SARL_v6xuywyznv","msl000062","rlPractice","","","img/black_2bandit_a2.png","75","img/black_2bandit_a2.png","","prac","","","75","","","","","","","","","","","","","","","","",""
"null","","259039","SARL_v6xuywyznv","msl000062","feedback","","","img/yay_R_a.png","null","","na","prac","","","","","","","","","","","","","","","","","","","",""
"null","","259194","SARL_v6xuywyznv","msl000062","fixation","","","img/fixation.png","null","","","prac","","","","","","","","","","","","","","","","","","","",""
"872","","260069","SARL_v6xuywyznv","msl000062","rlPractice","","","img/black_2bandit_a2.png","75","img/black_2bandit_a2.png","","prac","","","75","","","","","","","","","","","","","","","","",""
"null","","260825","SARL_v6xuywyznv","msl000062","feedback","","","img/yay_R_a.png","null","","na","prac","","","","","","","","","","","","","","","","","","","",""
"null","","260980","SARL_v6xuywyznv","msl000062","fixation","","","img/fixation.png","null","","","prac","","","","","","","","","","","","","","","","","","","",""
"8289","","269273","SARL_v6xuywyznv","msl000062","","","","","","","","prac","","","","","","","","","","","","","","","","","","","",""
"709","","269988","SARL_v6xuywyznv","msl000062","mixAttFreqPrac","","","img/green_2bandit_a2.png","68","img/green_2bandit_a2.png","70","prac","","","","","","","","","","","","","","","","","","","",""
"709","","270084","SARL_v6xuywyznv","msl000062","freqPrac_resp","","","img/green_2bandit_a.png","68","img/green_2bandit_a.png","70","prac","","","","","","","","","","","","","","","","","","","",""
"null","","270239","SARL_v6xuywyznv","msl000062","fixation","","","img/fixation.png","null","","","prac","","","","","","","","","","","","","","","","","","","",""
"null","","271044","SARL_v6xuywyznv","msl000062","mixAttInfreqPrac","","","img/orange_2bandit_a2.png","null","img/orange_2bandit_a2.png","68","prac","","","","","","","","","","","","","","","","","","","",""
"16","","271200","SARL_v6xuywyznv","msl000062","fixation","","","img/fixation.png","70","","","prac","","","","","","","","","","","","","","","","","","","",""
"546","","271750","SARL_v6xuywyznv","msl000062","mixAttInfreqPrac","","","img/orange_2bandit_a2.png","70","img/orange_2bandit_a2.png","68","prac","","","","","","","","","","","","","","","","","","","",""
"546","","272011","SARL_v6xuywyznv","msl000062","infreqPrac_resp","","","img/orange_2bandit_a.png","70","img/green_2bandit_a.png","68","prac","","","","","","","","","","","","","","","","","","","",""
"null","","272166","SARL_v6xuywyznv","msl000062","fixation","","","img/fixation.png","null","","","prac","","","","","","","","","","","","","","","","","","","",""
"548","","272720","SARL_v6xuywyznv","msl000062","mixAttInfreqPrac","","","img/orange_2bandit_a2.png","70","img/orange_2bandit_a2.png","68","prac","","","","","","","","","","","","","","","","","","","",""
"548","","272976","SARL_v6xuywyznv","msl000062","infreqPrac_resp","","","img/orange_2bandit_a.png","70","img/green_2bandit_a.png","68","prac","","","","","","","","","","","","","","","","","","","",""
"null","","273132","SARL_v6xuywyznv","msl000062","fixation","","","img/fixation.png","null","","","prac","","","","","","","","","","","","","","","","","","","",""
"null","","273937","SARL_v6xuywyznv","msl000062","mixAttFreqPrac","","","img/green_2bandit_a2.png","null","img/green_2bandit_a2.png","70","prac","","","","","","","","","","","","","","","","","","","",""
"null","","274093","SARL_v6xuywyznv","msl000062","fixation","","","img/fixation.png","null","","","prac","","","","","","","","","","","","","","","","","","","",""
"711","","274808","SARL_v6xuywyznv","msl000062","mixRLPractice","","","img/black_2bandit_a2.png","75","img/black_2bandit_a2.png","","prac","","","","","","","","","","","","","","","","","","","",""
"null","","275563","SARL_v6xuywyznv","msl000062","feedback","","","img/yay_R_a.png","null","","na","prac","","","","","","","","","","","","","","","","","","","",""
"735","","276304","SARL_v6xuywyznv","msl000062","mixAttFreqPrac","","","img/green_2bandit_a2.png","68","img/green_2bandit_a2.png","70","prac","","","","","","","","","","","","","","","","","","","",""
"735","","276375","SARL_v6xuywyznv","msl000062","freqPrac_resp","","","img/green_2bandit_a.png","68","img/green_2bandit_a.png","70","prac","","","","","","","","","","","","","","","","","","","",""
"null","","276531","SARL_v6xuywyznv","msl000062","fixation","","","img/fixation.png","null","","","prac","","","","","","","","","","","","","","","","","","","",""
"740","","277277","SARL_v6xuywyznv","msl000062","mixAttInfreqPrac","","","img/orange_2bandit_a2.png","68","img/orange_2bandit_a2.png","68","prac","","","","","","","","","","","","","","","","","","","",""
"740","","277342","SARL_v6xuywyznv","msl000062","infreqPrac_resp","","","img/orange_2bandit_a.png","68","img/green_2bandit_a.png","68","prac","","","","","","","","","","","","","","","","","","","",""
"null","","277498","SARL_v6xuywyznv","msl000062","fixation","","","img/fixation.png","null","","","prac","","","","","","","","","","","","","","","","","","","",""
"null","","278305","SARL_v6xuywyznv","msl000062","mixAttFreqPrac","","","img/green_2bandit_a2.png","null","img/green_2bandit_a2.png","70","prac","","","","","","","","","","","","","","","","","","","",""
"67","","278461","SARL_v6xuywyznv","msl000062","fixation","","","img/fixation.png","70","","","prac","","","","","","","","","","","","","","","","","","","",""
"626","","279091","SARL_v6xuywyznv","msl000062","mixAttFreqPrac","","","img/green_2bandit_a2.png","70","img/green_2bandit_a2.png","70","prac","","","","","","","","","","","","","","","","","","","",""
"626","","279271","SARL_v6xuywyznv","msl000062","freqPrac_resp","","","img/green_2bandit_a.png","70","img/green_2bandit_a.png","70","prac","","","","","","","","","","","","","","","","","","","",""
"null","","279427","SARL_v6xuywyznv","msl000062","fixation","","","img/fixation.png","null","","","prac","","","","","","","","","","","","","","","","","","","",""
"521","","279954","SARL_v6xuywyznv","msl000062","mixAttInfreqPrac","","","img/orange_2bandit_a2.png","68","img/orange_2bandit_a2.png","68","prac","","","","","","","","","","","","","","","","","","","",""
"521","","280238","SARL_v6xuywyznv","msl000062","infreqPrac_resp","","","img/orange_2bandit_a.png","68","img/green_2bandit_a.png","68","prac","","","","","","","","","","","","","","","","","","","",""
"null","","280394","SARL_v6xuywyznv","msl000062","fixation","","","img/fixation.png","null","","","prac","","","","","","","","","","","","","","","","","","","",""
"589","","280987","SARL_v6xuywyznv","msl000062","mixRLPractice","","","img/black_2bandit_a2.png","75","img/black_2bandit_a2.png","","prac","","","","","","","","","","","","","","","","","","","",""
"null","","281744","SARL_v6xuywyznv","msl000062","feedback","","","img/boo_R_a.png","null","","na","prac","","","","","","","","","","","","","","","","","","","",""
"33401","","315149","SARL_v6xuywyznv","msl000062","","","","","","","","prac","","","","","","","","","","","","","","","","","","","",""
"568","","315723","SARL_v6xuywyznv","msl000062","freq","","","img/green_2bandit_a2.png","70","","70","test","1","","","square","circle","1","1","1","1","1","","","","","","","","","",""
"null","","315961","SARL_v6xuywyznv","msl000062","freq_resp","","","img/green_2bandit_a.png","70","img/green_2bandit_a.png","70","test","","","","","","","","","1","","","","","","","","","","",""
"null","","316118","SARL_v6xuywyznv","msl000062","fixation","","","img/fixation.png","null","","","test","","","","","","","","","","","","","","","","","","","",""
"327","","316448","SARL_v6xuywyznv","msl000062","freq","","","img/green_2bandit_a2.png","70","","70","test","1","","","square","circle","2","2","2","1","1","","","","","","","","","",""
"null","","316927","SARL_v6xuywyznv","msl000062","freq_resp","","","img/green_2bandit_a.png","70","img/green_2bandit_a.png","70","test","","","","","","","","","1","","","","","","","","","","",""
"null","","317083","SARL_v6xuywyznv","msl000062","fixation","","","img/fixation.png","null","","","test","","","","","","","","","","","","","","","","","","","",""
"274","","317361","SARL_v6xuywyznv","msl000062","freq","","","img/green_2bandit_a2.png","70","","70","test","1","","","square","circle","3","3","3","1","1","","","","","","","","","",""
"null","","317894","SARL_v6xuywyznv","msl000062","freq_resp","","","img/green_2bandit_a.png","70","img/green_2bandit_a.png","70","test","","","","","","","","","1","","","","","","","","","","",""
"null","","318050","SARL_v6xuywyznv","msl000062","fixation","","","img/fixation.png","null","","","test","","","","","","","","","","","","","","","","","","","",""
"322","","318377","SARL_v6xuywyznv","msl000062","freq","","","img/green_2bandit_a2.png","70","","70","test","1","","","square","circle","4","4","4","1","1","","","","","","","","","",""
"null","","318861","SARL_v6xuywyznv","msl000062","freq_resp","","","img/green_2bandit_a.png","70","img/green_2bandit_a.png","70","test","","","","","","","","","1","","","","","","","","","","",""
"null","","319016","SARL_v6xuywyznv","msl000062","fixation","","","img/fixation.png","null","","","test","","","","","","","","","","","","","","","","","","","",""
"278","","319300","SARL_v6xuywyznv","msl000062","freq","","","img/green_2bandit_a2.png","70","","70","test","1","","","square","circle","5","5","5","1","1","","","","","","","","","",""
"null","","319828","SARL_v6xuywyznv","msl000062","freq_resp","","","img/green_2bandit_a.png","70","img/green_2bandit_a.png","70","test","","","","","","","","","1","","","","","","","","","","",""
"null","","319983","SARL_v6xuywyznv","msl000062","fixation","","","img/fixation.png","null","","","test","","","","","","","","","","","","","","","","","","","",""
"235","","320222","SARL_v6xuywyznv","msl000062","freq","","","img/green_2bandit_a2.png","70","","70","test","1","","","square","circle","6","6","6","1","1","","","","","","","","","",""
"null","","320793","SARL_v6xuywyznv","msl000062","freq_resp","","","img/green_2bandit_a.png","70","img/green_2bandit_a.png","70","test","","","","","","","","","1","","","","","","","","","","",""
"null","","320948","SARL_v6xuywyznv","msl000062","fixation","","","img/fixation.png","null","","","test","","","","","","","","","","","","","","","","","","","",""
"216","","321170","SARL_v6xuywyznv","msl000062","freq","","","img/green_2bandit_a2.png","70","","70","test","1","","","square","circle","7","7","7","1","1","","","","","","","","","",""
"null","","321761","SARL_v6xuywyznv","msl000062","freq_resp","","","img/green_2bandit_a.png","70","img/green_2bandit_a.png","70","test","","","","","","","","","1","","","","","","","","","","",""
"null","","321916","SARL_v6xuywyznv","msl000062","fixation","","","img/fixation.png","null","","","test","","","","","","","","","","","","","","","","","","","",""
"219","","322141","SARL_v6xuywyznv","msl000062","freq","","","img/green_2bandit_a2.png","70","","70","test","1","","","square","circle","8","8","8","1","1","","","","","","","","","",""
"null","","322728","SARL_v6xuywyznv","msl000062","freq_resp","","","img/green_2bandit_a.png","70","img/green_2bandit_a.png","70","test","","","","","","","","","1","","","","","","","","","","",""
"null","","322883","SARL_v6xuywyznv","msl000062","fixation","","","img/fixation.png","null","","","test","","","","","","","","","","","","","","","","","","","",""
"288","","323174","SARL_v6xuywyznv","msl000062","freq","","","img/green_2bandit_a2.png","70","","70","test","1","","","square","circle","9","9","9","1","1","","","","","","","","","",""
"null","","323693","SARL_v6xuywyznv","msl000062","freq_resp","","","img/green_2bandit_a.png","70","img/green_2bandit_a.png","70","test","","","","","","","","","1","","","","","","","","","","",""
"null","","323849","SARL_v6xuywyznv","msl000062","fixation","","","img/fixation.png","null","","","test","","","","","","","","","","","","","","","","","","","",""
"231","","324083","SARL_v6xuywyznv","msl000062","freq","","","img/green_2bandit_a2.png","70","","70","test","1","","","square","circle","10","10","10","1","1","","","","","","","","","",""
"null","","324658","SARL_v6xuywyznv","msl000062","freq_resp","","","img/green_2bandit_a.png","70","img/green_2bandit_a.png","70","test","","","","","","","","","1","","","","","","","","","","",""
"null","","324813","SARL_v6xuywyznv","msl000062","fixation","","","img/fixation.png","null","","","test","","","","","","","","","","","","","","","","","","","",""
"250","","325067","SARL_v6xuywyznv","msl000062","freq","","","img/green_2bandit_a2.png","70","","70","test","1","","","square","circle","11","11","11","1","1","","","","","","","","","",""
"null","","325623","SARL_v6xuywyznv","msl000062","freq_resp","","","img/green_2bandit_a.png","70","img/green_2bandit_a.png","70","test","","","","","","","","","1","","","","","","","","","","",""
"null","","325779","SARL_v6xuywyznv","msl000062","fixation","","","img/fixation.png","null","","","test","","","","","","","","","","","","","","","","","","","",""
"248","","326031","SARL_v6xuywyznv","msl000062","freq","","","img/green_2bandit_a2.png","70","","70","test","1","","","square","circle","12","12","12","1","1","","","","","","","","","",""
"null","","326588","SARL_v6xuywyznv","msl000062","freq_resp","","","img/green_2bandit_a.png","70","img/green_2bandit_a.png","70","test","","","","","","","","","1","","","","","","","","","","",""
"null","","326744","SARL_v6xuywyznv","msl000062","fixation","","","img/fixation.png","null","","","test","","","","","","","","","","","","","","","","","","","",""
"217","","326966","SARL_v6xuywyznv","msl000062","freq","","","img/green_2bandit_a2.png","70","","70","test","1","","","square","circle","13","13","13","1","1","","","","","","","","","",""
"null","","327555","SARL_v6xuywyznv","msl000062","freq_resp","","","img/green_2bandit_a.png","70","img/green_2bandit_a.png","70","test","","","","","","","","","1","","","","","","","","","","",""
"null","","327711","SARL_v6xuywyznv","msl000062","fixation","","","img/fixation.png","null","","","test","","","","","","","","","","","","","","","","","","","",""
"141","","327858","SARL_v6xuywyznv","msl000062","freq","","","img/green_2bandit_a2.png","70","","70","test","1","","","square","circle","14","14","14","1","1","","","","","","","","","",""
"null","","328523","SARL_v6xuywyznv","msl000062","freq_resp","","","img/green_2bandit_a.png","70","img/green_2bandit_a.png","70","test","","","","","","","","","1","","","","","","","","","","",""
"null","","328680","SARL_v6xuywyznv","msl000062","fixation","","","img/fixation.png","null","","","test","","","","","","","","","","","","","","","","","","","",""
"283","","328967","SARL_v6xuywyznv","msl000062","infreq","","","img/orange_2bandit_a2.png","70","","68","test","0","","","square","circle","15","15","15","1","0.9333333333333333","","","","","","","","","",""
"null","","329490","SARL_v6xuywyznv","msl000062","infreq_resp","","","img/orange_2bandit_a.png","70","img/orange_2bandit_a.png","68","test","","","","","","","","","1","","","","","","","","","","",""
"null","","329644","SARL_v6xuywyznv","msl000062","fixation","","","img/fixation.png","null","","","test","","","","","","","","","","","","","","","","","","","",""
"700","","330349","SARL_v6xuywyznv","msl000062","freq","","","img/green_2bandit_a2.png","70","","70","test","1","","","square","circle","16","16","16","1","0.9375","","","","","","","","","",""
"null","","330454","SARL_v6xuywyznv","msl000062","freq_resp","","","img/green_2bandit_a.png","70","img/green_2bandit_a.png","70","test","","","","","","","","","1","","","","","","","","","","",""
"null","","330609","SARL_v6xuywyznv","msl000062","fixation","","","img/fixation.png","null","","","test","","","","","","","","","","","","","","","","","","","",""
"469","","331083","SARL_v6xuywyznv","msl000062","infreq","","","img/orange_2bandit_a2.png","68","","68","test","1","","","square","circle","17","17","17","1","0.9411764705882353","","","","","","","","","",""
"null","","331420","SARL_v6xuywyznv","msl000062","infreq_resp","","","img/orange_2bandit_a.png","68","img/orange_2bandit_a.png","68","test","","","","","","","","","1","","","","","","","","","","",""
"null","","331576","SARL_v6xuywyznv","msl000062","fixation","","","img/fixation.png","null","","","test","","","","","","","","","","","","","","","","","","","",""
"394","","331975","SARL_v6xuywyznv","msl000062","freq","","","img/green_2bandit_a2.png","70","","70","test","1","","","square","circle","18","18","18","1","0.9444444444444444","","","","","","","","","",""
"null","","332386","SARL_v6xuywyznv","msl000062","freq_resp","","","img/green_2bandit_a.png","70","img/green_2bandit_a.png","70","test","","","","","","","","","1","","","","","","","","","","",""
"null","","332542","SARL_v6xuywyznv","msl000062","fixation","","","img/fixation.png","null","","","test","","","","","","","","","","","","","","","","","","","",""
"396","","332943","SARL_v6xuywyznv","msl000062","freq","","","img/green_2bandit_a2.png","70","","70","test","1","","","square","circle","19","19","19","1","0.9473684210526315","","","","","","","","","",""
"null","","333352","SARL_v6xuywyznv","msl000062","freq_resp","","","img/green_2bandit_a.png","70","img/green_2bandit_a.png","70","test","","","","","","","","","1","","","","","","","","","","",""
"null","","333506","SARL_v6xuywyznv","msl000062","fixation","","","img/fixation.png","null","","","test","","","","","","","","","","","","","","","","","","","",""
"362","","333874","SARL_v6xuywyznv","msl000062","freq","","","img/green_2bandit_a2.png","70","","70","test","1","","","square","circle","20","20","20","1","0.95","","","","","","","","","",""
"null","","334317","SARL_v6xuywyznv","msl000062","freq_resp","","","img/green_2bandit_a.png","70","img/green_2bandit_a.png","70","test","","","","","","","","","1","","","","","","","","","","",""
"null","","334473","SARL_v6xuywyznv","msl000062","fixation","","","img/fixation.png","null","","","test","","","","","","","","","","","","","","","","","","","",""
"342","","334821","SARL_v6xuywyznv","msl000062","freq","","","img/green_2bandit_a2.png","70","","70","test","1","","","square","circle","21","21","21","1","0.9523809523809523","","","","","","","","","",""
"null","","335285","SARL_v6xuywyznv","msl000062","freq_resp","","","img/green_2bandit_a.png","70","img/green_2bandit_a.png","70","test","","","","","","","","","1","","","","","","","","","","",""
"null","","335440","SARL_v6xuywyznv","msl000062","fixation","","","img/fixation.png","null","","","test","","","","","","","","","","","","","","","","","","","",""
"609","","336054","SARL_v6xuywyznv","msl000062","rl","","","img/black_2bandit_a2.png","74","","0","test","","","1","square","circle","22","","0","1","","74","0.2","0.8","0.5204913343867923","0.8","0.2","0.8","square","1","0"
"null","","336810","SARL_v6xuywyznv","msl000062","feedback","","","img/yay_L_a.png","null","","na","test","","","","","","","","","1","","74","0.2","0.8","","","","0.8","","1",""
"null","","337617","SARL_v6xuywyznv","msl000062","freq","","","img/green_2bandit_a2.png","null","","70","test","0","","","square","circle","23","22","1","2","0.9090909090909091","","","","","","","","","",""
"null","","337772","SARL_v6xuywyznv","msl000062","fixation","","","img/fixation.png","null","","","test","","","","","","","","","","","","","","","","","","","",""
"582","","338358","SARL_v6xuywyznv","msl000062","freq","","","img/green_2bandit_a2.png","70","","70","test","1","","","square","circle","24","23","2","2","0.9130434782608695","","","","","","","","","",""
"null","","338582","SARL_v6xuywyznv","msl000062","freq_resp","","","img/green_2bandit_a.png","70","img/green_2bandit_a.png","70","test","","","","","","","","","2","","","","","","","","","","",""
"null","","338736","SARL_v6xuywyznv","msl000062","fixation","","","img/fixation.png","null","","","test","","","","","","","","","","","","","","","","","","","",""
"316","","339057","SARL_v6xuywyznv","msl000062","freq","","","img/green_2bandit_a2.png","70","","70","test","1","","","square","circle","25","24","3","2","0.9166666666666666","","","","","","","","","",""
"null","","339547","SARL_v6xuywyznv","msl000062","freq_resp","","","img/green_2bandit_a.png","70","img/green_2bandit_a.png","70","test","","","","","","","","","2","","","","","","","","","","",""
"null","","339703","SARL_v6xuywyznv","msl000062","fixation","","","img/fixation.png","null","","","test","","","","","","","","","","","","","","","","","","","",""
"299","","340007","SARL_v6xuywyznv","msl000062","freq","","","img/green_2bandit_a2.png","70","","70","test","1","","","square","circle","26","25","4","2","0.92","","","","","","","","","",""
"null","","340515","SARL_v6xuywyznv","msl000062","freq_resp","","","img/green_2bandit_a.png","70","img/green_2bandit_a.png","70","test","","","","","","","","","2","","","","","","","","","","",""
"null","","340671","SARL_v6xuywyznv","msl000062","fixation","","","img/fixation.png","null","","","test","","","","","","","","","","","","","","","","","","","",""
"286","","340961","SARL_v6xuywyznv","msl000062","freq","","","img/green_2bandit_a2.png","70","","70","test","1","","","square","circle","27","26","5","2","0.9230769230769231","","","","","","","","","",""
"null","","341481","SARL_v6xuywyznv","msl000062","freq_resp","","","img/green_2bandit_a.png","70","img/green_2bandit_a.png","70","test","","","","","","","","","2","","","","","","","","","","",""
"null","","341636","SARL_v6xuywyznv","msl000062","fixation","","","img/fixation.png","null","","","test","","","","","","","","","","","","","","","","","","","",""
"298","","341939","SARL_v6xuywyznv","msl000062","freq","","","img/green_2bandit_a2.png","70","","70","test","1","","","square","circle","28","27","6","2","0.9259259259259259","","","","","","","","","",""
"null","","342447","SARL_v6xuywyznv","msl000062","freq_resp","","","img/green_2bandit_a.png","70","img/green_2bandit_a.png","70","test","","","","","","","","","2","","","","","","","","","","",""
"null","","342602","SARL_v6xuywyznv","msl000062","fixation","","","img/fixation.png","null","","","test","","","","","","","","","","","","","","","","","","","",""
"450","","343057","SARL_v6xuywyznv","msl000062","infreq","","","img/orange_2bandit_a2.png","68","","68","test","1","","","square","circle","29","28","7","2","0.9285714285714286","","","","","","","","","",""
"null","","343414","SARL_v6xuywyznv","msl000062","infreq_resp","","","img/orange_2bandit_a.png","68","img/orange_2bandit_a.png","68","test","","","","","","","","","2","","","","","","","","","","",""
"null","","343568","SARL_v6xuywyznv","msl000062","fixation","","","img/fixation.png","null","","","test","","","","","","","","","","","","","","","","","","","",""
"585","","344159","SARL_v6xuywyznv","msl000062","freq","","","img/green_2bandit_a2.png","70","","70","test","1","","","square","circle","30","29","8","2","0.9310344827586207","","","","","","","","","",""
"null","","344379","SARL_v6xuywyznv","msl000062","freq_resp","","","img/green_2bandit_a.png","70","img/green_2bandit_a.png","70","test","","","","","","","","","2","","","","","","","","","","",""
"null","","344535","SARL_v6xuywyznv","msl000062","fixation","","","img/fixation.png","null","","","test","","","","","","","","","","","","","","","","","","","",""
"682","","345223","SARL_v6xuywyznv","msl000062","freq","","","img/green_2bandit_a2.png","70","","70","test","1","","","square","circle","31","30","9","2","0.9333333333333333","","","","","","","","","",""
"null","","345346","SARL_v6xuywyznv","msl000062","freq_resp","","","img/green_2bandit_a.png","70","img/green_2bandit_a.png","70","test","","","","","","","","","2","","","","","","","","","","",""
"null","","345501","SARL_v6xuywyznv","msl000062","fixation","","","img/fixation.png","null","","","test","","","","","","","","","","","","","","","","","","","",""
"473","","345979","SARL_v6xuywyznv","msl000062","freq","","","img/green_2bandit_a2.png","70","","70","test","1","","","square","circle","32","31","10","2","0.9354838709677419","","","","","","","","","",""
"null","","346312","SARL_v6xuywyznv","msl000062","freq_resp","","","img/green_2bandit_a.png","70","img/green_2bandit_a.png","70","test","","","","","","","","","2","","","","","","","","","","",""
"null","","346467","SARL_v6xuywyznv","msl000062","fixation","","","img/fixation.png","null","","","test","","","","","","","","","","","","","","","","","","","",""
"522","","346993","SARL_v6xuywyznv","msl000062","infreq","","","img/orange_2bandit_a2.png","68","","68","test","1","","","square","circle","33","32","11","2","0.9375","","","","","","","","","",""
"null","","347276","SARL_v6xuywyznv","msl000062","infreq_resp","","","img/orange_2bandit_a.png","68","img/orange_2bandit_a.png","68","test","","","","","","","","","2","","","","","","","","","","",""
"null","","347431","SARL_v6xuywyznv","msl000062","fixation","","","img/fixation.png","null","","","test","","","","","","","","","","","","","","","","","","","",""
"429","","347866","SARL_v6xuywyznv","msl000062","freq","","","img/green_2bandit_a2.png","70","","70","test","1","","","square","circle","34","33","12","2","0.9393939393939394","","","","","","","","","",""
"null","","348242","SARL_v6xuywyznv","msl000062","freq_resp","","","img/green_2bandit_a.png","70","img/green_2bandit_a.png","70","test","","","","","","","","","2","","","","","","","","","","",""
"null","","348397","SARL_v6xuywyznv","msl000062","fixation","","","img/fixation.png","null","","","test","","","","","","","","","","","","","","","","","","","",""
"533","","348934","SARL_v6xuywyznv","msl000062","freq","","","img/green_2bandit_a2.png","70","","70","test","1","","","square","circle","35","34","13","2","0.9411764705882353","","","","","","","","","",""
"null","","349207","SARL_v6xuywyznv","msl000062","freq_resp","","","img/green_2bandit_a.png","70","img/green_2bandit_a.png","70","test","","","","","","","","","2","","","","","","","","","","",""
"null","","349363","SARL_v6xuywyznv","msl000062","fixation","","","img/fixation.png","null","","","test","","","","","","","","","","","","","","","","","","","",""
"440","","349809","SARL_v6xuywyznv","msl000062","freq","","","img/green_2bandit_a2.png","70","","70","test","1","","","square","circle","36","35","14","2","0.9428571428571428","","","","","","","","","",""
"null","","350174","SARL_v6xuywyznv","msl000062","freq_resp","","","img/green_2bandit_a.png","70","img/green_2bandit_a.png","70","test","","","","","","","","","2","","","","","","","","","","",""
"null","","350330","SARL_v6xuywyznv","msl000062","fixation","","","img/fixation.png","null","","","test","","","","","","","","","","","","","","","","","","","",""
"336","","350671","SARL_v6xuywyznv","msl000062","freq","","","img/green_2bandit_a2.png","70","","70","test","1","","","square","circle","37","36","15","2","0.9444444444444444","","","","","","","","","",""
"null","","351140","SARL_v6xuywyznv","msl000062","freq_resp","","","img/green_2bandit_a.png","70","img/green_2bandit_a.png","70","test","","","","","","","","","2","","","","","","","","","","",""
"null","","351296","SARL_v6xuywyznv","msl000062","fixation","","","img/fixation.png","null","","","test","","","","","","","","","","","","","","","","","","","",""
"260","","351561","SARL_v6xuywyznv","msl000062","freq","","","img/green_2bandit_a2.png","70","","70","test","1","","","square","circle","38","37","16","2","0.9459459459459459","","","","","","","","","",""
"null","","352106","SARL_v6xuywyznv","msl000062","freq_resp","","","img/green_2bandit_a.png","70","img/green_2bandit_a.png","70","test","","","","","","","","","2","","","","","","","","","","",""
"null","","352262","SARL_v6xuywyznv","msl000062","fixation","","","img/fixation.png","null","","","test","","","","","","","","","","","","","","","","","","","",""
"294","","352560","SARL_v6xuywyznv","msl000062","freq","","","img/green_2bandit_a2.png","70","","70","test","1","","","square","circle","39","38","17","2","0.9473684210526315","","","","","","","","","",""
"null","","353071","SARL_v6xuywyznv","msl000062","freq_resp","","","img/green_2bandit_a.png","70","img/green_2bandit_a.png","70","test","","","","","","","","","2","","","","","","","","","","",""
"null","","353227","SARL_v6xuywyznv","msl000062","fixation","","","img/fixation.png","null","","","test","","","","","","","","","","","","","","","","","","","",""
"432","","353665","SARL_v6xuywyznv","msl000062","infreq","","","img/orange_2bandit_a2.png","68","","68","test","1","","","square","circle","40","39","18","2","0.9487179487179487","","","","","","","","","",""
"null","","354038","SARL_v6xuywyznv","msl000062","infreq_resp","","","img/orange_2bandit_a.png","68","img/orange_2bandit_a.png","68","test","","","","","","","","","2","","","","","","","","","","",""
"null","","354194","SARL_v6xuywyznv","msl000062","fixation","","","img/fixation.png","null","","","test","","","","","","","","","","","","","","","","","","","",""
"434","","354632","SARL_v6xuywyznv","msl000062","freq","","","img/green_2bandit_a2.png","70","","70","test","1","","","square","circle","41","40","19","2","0.95","","","","","","","","","",""
"null","","355004","SARL_v6xuywyznv","msl000062","freq_resp","","","img/green_2bandit_a.png","70","img/green_2bandit_a.png","70","test","","","","","","","","","2","","","","","","","","","","",""
"null","","355159","SARL_v6xuywyznv","msl000062","fixation","","","img/fixation.png","null","","","test","","","","","","","","","","","","","","","","","","","",""
"332","","355495","SARL_v6xuywyznv","msl000062","freq","","","img/green_2bandit_a2.png","70","","70","test","1","","","square","circle","42","41","20","2","0.9512195121951219","","","","","","","","","",""
"null","","355969","SARL_v6xuywyznv","msl000062","freq_resp","","","img/green_2bandit_a.png","70","img/green_2bandit_a.png","70","test","","","","","","","","","2","","","","","","","","","","",""
"null","","356124","SARL_v6xuywyznv","msl000062","fixation","","","img/fixation.png","null","","","test","","","","","","","","","","","","","","","","","","","",""
"379","","356509","SARL_v6xuywyznv","msl000062","freq","","","img/green_2bandit_a2.png","70","","70","test","1","","","square","circle","43","42","21","2","0.9523809523809523","","","","","","","","","",""
"null","","356937","SARL_v6xuywyznv","msl000062","freq_resp","","","img/green_2bandit_a.png","70","img/green_2bandit_a.png","70","test","","","","","","","","","2","","","","","","","","","","",""
"null","","357091","SARL_v6xuywyznv","msl000062","fixation","","","img/fixation.png","null","","","test","","","","","","","","","","","","","","","","","","","",""
"580","","357676","SARL_v6xuywyznv","msl000062","rl","","","img/black_2bandit_a2.png","75","","0","test","","","0","square","circle","44","","0","2","","75","0.2","0.8","0.7352779576111538","0.8","0.2","0.2","circle","2","0"
"null","","358431","SARL_v6xuywyznv","msl000062","feedback","","","img/boo_R_a.png","null","","na","test","","","","","","","","","2","","75","0.2","0.8","","","","0.2","","2",""
"337","","358774","SARL_v6xuywyznv","msl000062","freq","","","img/green_2bandit_a2.png","70","","70","test","1","","","square","circle","45","43","1","3","0.9534883720930233","","","","","","","","","",""
"null","","359242","SARL_v6xuywyznv","msl000062","freq_resp","","","img/green_2bandit_a.png","70","img/green_2bandit_a.png","70","test","","","","","","","","","3","","","","","","","","","","",""
"null","","359397","SARL_v6xuywyznv","msl000062","fixation","","","img/fixation.png","null","","","test","","","","","","","","","","","","","","","","","","","",""
"300","","359703","SARL_v6xuywyznv","msl000062","freq","","","img/green_2bandit_a2.png","70","","70","test","1","","","square","circle","46","44","2","3","0.9545454545454546","","","","","","","","","",""
"null","","360208","SARL_v6xuywyznv","msl000062","freq_resp","","","img/green_2bandit_a.png","70","img/green_2bandit_a.png","70","test","","","","","","","","","3","","","","","","","","","","",""
"null","","360364","SARL_v6xuywyznv","msl000062","fixation","","","img/fixation.png","null","","","test","","","","","","","","","","","","","","","","","","","",""
"322","","360692","SARL_v6xuywyznv","msl000062","freq","","","img/green_2bandit_a2.png","70","","70","test","1","","","square","circle","47","45","3","3","0.9555555555555556","","","","","","","","","",""
"null","","361175","SARL_v6xuywyznv","msl000062","freq_resp","","","img/green_2bandit_a.png","70","img/green_2bandit_a.png","70","test","","","","","","","","","3","","","","","","","","","","",""
"null","","361331","SARL_v6xuywyznv","msl000062","fixation","","","img/fixation.png","null","","","test","","","","","","","","","","","","","","","","","","","",""
"234","","361571","SARL_v6xuywyznv","msl000062","freq","","","img/green_2bandit_a2.png","70","","70","test","1","","","square","circle","48","46","4","3","0.9565217391304348","","","","","","","","","",""
"null","","362143","SARL_v6xuywyznv","msl000062","freq_resp","","","img/green_2bandit_a.png","70","img/green_2bandit_a.png","70","test","","","","","","","","","3","","","","","","","","","","",""
"null","","362298","SARL_v6xuywyznv","msl000062","fixation","","","img/fixation.png","null","","","test","","","","","","","","","","","","","","","","","","","",""
"642","","362944","SARL_v6xuywyznv","msl000062","infreq","","","img/orange_2bandit_a2.png","68","","68","test","1","","","square","circle","49","47","5","3","0.9574468085106383","","","","","","","","","",""
"null","","363108","SARL_v6xuywyznv","msl000062","infreq_resp","","","img/orange_2bandit_a.png","68","img/orange_2bandit_a.png","68","test","","","","","","","","","3","","","","","","","","","","",""
"null","","363262","SARL_v6xuywyznv","msl000062","fixation","","","img/fixation.png","null","","","test","","","","","","","","","","","","","","","","","","","",""
"429","","363696","SARL_v6xuywyznv","msl000062","freq","","","img/green_2bandit_a2.png","70","","70","test","1","","","square","circle","50","48","6","3","0.9583333333333334","","","","","","","","","",""
"null","","364073","SARL_v6xuywyznv","msl000062","freq_resp","","","img/green_2bandit_a.png","70","img/green_2bandit_a.png","70","test","","","","","","","","","3","","","","","","","","","","",""
"null","","364229","SARL_v6xuywyznv","msl000062","fixation","","","img/fixation.png","null","","","test","","","","","","","","","","","","","","","","","","","",""
"322","","364556","SARL_v6xuywyznv","msl000062","freq","","","img/green_2bandit_a2.png","70","","70","test","1","","","square","circle","51","49","7","3","0.9591836734693877","","","","","","","","","",""
"null","","365040","SARL_v6xuywyznv","msl000062","freq_resp","","","img/green_2bandit_a.png","70","img/green_2bandit_a.png","70","test","","","","","","","","","3","","","","","","","","","","",""
"null","","365195","SARL_v6xuywyznv","msl000062","fixation","","","img/fixation.png","null","","","test","","","","","","","","","","","","","","","","","","","",""
"259","","365458","SARL_v6xuywyznv","msl000062","freq","","","img/green_2bandit_a2.png","70","","70","test","1","","","square","circle","52","50","8","3","0.96","","","","","","","","","",""
"null","","366005","SARL_v6xuywyznv","msl000062","freq_resp","","","img/green_2bandit_a.png","70","img/green_2bandit_a.png","70","test","","","","","","","","","3","","","","","","","","","","",""
"null","","366161","SARL_v6xuywyznv","msl000062","fixation","","","img/fixation.png","null","","","test","","","","","","","","","","","","","","","","","","","",""
"268","","366434","SARL_v6xuywyznv","msl000062","freq","","","img/green_2bandit_a2.png","70","","70","test","1","","","square","circle","53","51","9","3","0.9607843137254902","","","","","","","","","",""
"null","","366971","SARL_v6xuywyznv","msl000062","freq_resp","","","img/green_2bandit_a.png","70","img/green_2bandit_a.png","70","test","","","","","","","","","3","","","","","","","","","","",""
"null","","367126","SARL_v6xuywyznv","msl000062","fixation","","","img/fixation.png","null","","","test","","","","","","","","","","","","","","","","","","","",""
"310","","367441","SARL_v6xuywyznv","msl000062","freq","","","img/green_2bandit_a2.png","70","","70","test","1","","","square","circle","54","52","10","3","0.9615384615384616","","","","","","","","","",""
"null","","367938","SARL_v6xuywyznv","msl000062","freq_resp","","","img/green_2bandit_a.png","70","img/green_2bandit_a.png","70","test","","","","","","","","","3","","","","","","","","","","",""
"null","","368092","SARL_v6xuywyznv","msl000062","fixation","","","img/fixation.png","null","","","test","","","","","","","","","","","","","","","","","","","",""
"320","","368418","SARL_v6xuywyznv","msl000062","freq","","","img/green_2bandit_a2.png","70","","70","test","1","","","square","circle","55","53","11","3","0.9622641509433962","","","","","","","","","",""
"null","","368904","SARL_v6xuywyznv","msl000062","freq_resp","","","img/green_2bandit_a.png","70","img/green_2bandit_a.png","70","test","","","","","","","","","3","","","","","","","","","","",""
"null","","369060","SARL_v6xuywyznv","msl000062","fixation","","","img/fixation.png","null","","","test","","","","","","","","","","","","","","","","","","","",""
"331","","369395","SARL_v6xuywyznv","msl000062","freq","","","img/green_2bandit_a2.png","70","","70","test","1","","","square","circle","56","54","12","3","0.9629629629629629","","","","","","","","","",""
"null","","369869","SARL_v6xuywyznv","msl000062","freq_resp","","","img/green_2bandit_a.png","70","img/green_2bandit_a.png","70","test","","","","","","","","","3","","","","","","","","","","",""
"null","","370026","SARL_v6xuywyznv","msl000062","fixation","","","img/fixation.png","null","","","test","","","","","","","","","","","","","","","","","","","",""
"278","","370308","SARL_v6xuywyznv","msl000062","freq","","","img/green_2bandit_a2.png","70","","70","test","1","","","square","circle","57","55","13","3","0.9636363636363636","","","","","","","","","",""
"null","","370835","SARL_v6xuywyznv","msl000062","freq_resp","","","img/green_2bandit_a.png","70","img/green_2bandit_a.png","70","test","","","","","","","","","3","","","","","","","","","","",""
"null","","370991","SARL_v6xuywyznv","msl000062","fixation","","","img/fixation.png","null","","","test","","","","","","","","","","","","","","","","","","","",""
"340","","371336","SARL_v6xuywyznv","msl000062","freq","","","img/green_2bandit_a2.png","70","","70","test","1","","","square","circle","58","56","14","3","0.9642857142857143","","","","","","","","","",""
"null","","371802","SARL_v6xuywyznv","msl000062","freq_resp","","","img/green_2bandit_a.png","70","img/green_2bandit_a.png","70","test","","","","","","","","","3","","","","","","","","","","",""
"null","","371957","SARL_v6xuywyznv","msl000062","fixation","","","img/fixation.png","null","","","test","","","","","","","","","","","","","","","","","","","",""
"294","","372257","SARL_v6xuywyznv","msl000062","infreq","","","img/orange_2bandit_a2.png","70","","68","test","0","","","square","circle","59","57","15","3","0.9473684210526315","","","","","","","","","",""
"null","","372769","SARL_v6xuywyznv","msl000062","infreq_resp","","","img/orange_2bandit_a.png","70","img/orange_2bandit_a.png","68","test","","","","","","","","","3","","","","","","","","","","",""
"null","","372925","SARL_v6xuywyznv","msl000062","fixation","","","img/fixation.png","null","","","test","","","","","","","","","","","","","","","","","","","",""
"512","","373441","SARL_v6xuywyznv","msl000062","freq","","","img/green_2bandit_a2.png","70","","70","test","1","","","square","circle","60","58","16","3","0.9482758620689655","","","","","","","","","",""
"null","","373736","SARL_v6xuywyznv","msl000062","freq_resp","","","img/green_2bandit_a.png","70","img/green_2bandit_a.png","70","test","","","","","","","","","3","","","","","","","","","","",""
"null","","373892","SARL_v6xuywyznv","msl000062","fixation","","","img/fixation.png","null","","","test","","","","","","","","","","","","","","","","","","","",""
"429","","374326","SARL_v6xuywyznv","msl000062","freq","","","img/green_2bandit_a2.png","70","","70","test","1","","","square","circle","61","59","17","3","0.9491525423728814","","","","","","","","","",""
"null","","374702","SARL_v6xuywyznv","msl000062","freq_resp","","","img/green_2bandit_a.png","70","img/green_2bandit_a.png","70","test","","","","","","","","","3","","","","","","","","","","",""
"null","","374859","SARL_v6xuywyznv","msl000062","fixation","","","img/fixation.png","null","","","test","","","","","","","","","","","","","","","","","","","",""
"496","","375359","SARL_v6xuywyznv","msl000062","freq","","","img/green_2bandit_a2.png","70","","70","test","1","","","square","circle","62","60","18","3","0.95","","","","","","","","","",""
"null","","375669","SARL_v6xuywyznv","msl000062","freq_resp","","","img/green_2bandit_a.png","70","img/green_2bandit_a.png","70","test","","","","","","","","","3","","","","","","","","","","",""
"null","","375825","SARL_v6xuywyznv","msl000062","fixation","","","img/fixation.png","null","","","test","","","","","","","","","","","","","","","","","","","",""
"454","","376282","SARL_v6xuywyznv","msl000062","freq","","","img/green_2bandit_a2.png","70","","70","test","1","","","square","circle","63","61","19","3","0.9508196721311475","","","","","","","","","",""
"null","","376633","SARL_v6xuywyznv","msl000062","freq_resp","","","img/green_2bandit_a.png","70","img/green_2bandit_a.png","70","test","","","","","","","","","3","","","","","","","","","","",""
"null","","376789","SARL_v6xuywyznv","msl000062","fixation","","","img/fixation.png","null","","","test","","","","","","","","","","","","","","","","","","","",""
"396","","377191","SARL_v6xuywyznv","msl000062","freq","","","img/green_2bandit_a2.png","70","","70","test","1","","","square","circle","64","62","20","3","0.9516129032258065","","","","","","","","","",""
"null","","377600","SARL_v6xuywyznv","msl000062","freq_resp","","","img/green_2bandit_a.png","70","img/green_2bandit_a.png","70","test","","","","","","","","","3","","","","","","","","","","",""
"null","","377755","SARL_v6xuywyznv","msl000062","fixation","","","img/fixation.png","null","","","test","","","","","","","","","","","","","","","","","","","",""
"341","","378103","SARL_v6xuywyznv","msl000062","infreq","","","img/orange_2bandit_a2.png","70","","68","test","0","","","square","circle","65","63","21","3","0.9365079365079365","","","","","","","","","",""
"null","","378568","SARL_v6xuywyznv","msl000062","infreq_resp","","","img/orange_2bandit_a.png","70","img/orange_2bandit_a.png","68","test","","","","","","","","","3","","","","","","","","","","",""
"null","","378724","SARL_v6xuywyznv","msl000062","fixation","","","img/fixation.png","null","","","test","","","","","","","","","","","","","","","","","","","",""
"505","","379233","SARL_v6xuywyznv","msl000062","freq","","","img/green_2bandit_a2.png","70","","70","test","1","","","square","circle","66","64","22","3","0.9375","","","","","","","","","",""
"null","","379534","SARL_v6xuywyznv","msl000062","freq_resp","","","img/green_2bandit_a.png","70","img/green_2bandit_a.png","70","test","","","","","","","","","3","","","","","","","","","","",""
"null","","379690","SARL_v6xuywyznv","msl000062","fixation","","","img/fixation.png","null","","","test","","","","","","","","","","","","","","","","","","","",""
"441","","380137","SARL_v6xuywyznv","msl000062","freq","","","img/green_2bandit_a2.png","70","","70","test","1","","","square","circle","67","65","23","3","0.9384615384615385","","","","","","","","","",""
"null","","380502","SARL_v6xuywyznv","msl000062","freq_resp","","","img/green_2bandit_a.png","70","img/green_2bandit_a.png","70","test","","","","","","","","","3","","","","","","","","","","",""
"null","","380658","SARL_v6xuywyznv","msl000062","fixation","","","img/fixation.png","null","","","test","","","","","","","","","","","","","","","","","","","",""
"338","","381001","SARL_v6xuywyznv","msl000062","freq","","","img/green_2bandit_a2.png","70","","70","test","1","","","square","circle","68","66","24","3","0.9393939393939394","","","","","","","","","",""
"null","","381469","SARL_v6xuywyznv","msl000062","freq_resp","","","img/green_2bandit_a.png","70","img/green_2bandit_a.png","70","test","","","","","","","","","3","","","","","","","","","","",""
"null","","381625","SARL_v6xuywyznv","msl000062","fixation","","","img/fixation.png","null","","","test","","","","","","","","","","","","","","","","","","","",""
"304","","381932","SARL_v6xuywyznv","msl000062","freq","","","img/green_2bandit_a2.png","70","","70","test","1","","","square","circle","69","67","25","3","0.9402985074626866","","","","","","","","","",""
"null","","382435","SARL_v6xuywyznv","msl000062","freq_resp","","","img/green_2bandit_a.png","70","img/green_2bandit_a.png","70","test","","","","","","","","","3","","","","","","","","","","",""
"null","","382590","SARL_v6xuywyznv","msl000062","fixation","","","img/fixation.png","null","","","test","","","","","","","","","","","","","","","","","","","",""
"332","","382928","SARL_v6xuywyznv","msl000062","freq","","","img/green_2bandit_a2.png","70","","70","test","1","","","square","circle","70","68","26","3","0.9411764705882353","","","","","","","","","",""
"null","","383402","SARL_v6xuywyznv","msl000062","freq_resp","","","img/green_2bandit_a.png","70","img/green_2bandit_a.png","70","test","","","","","","","","","3","","","","","","","","","","",""
"null","","383557","SARL_v6xuywyznv","msl000062","fixation","","","img/fixation.png","null","","","test","","","","","","","","","","","","","","","","","","","",""
"626","","384188","SARL_v6xuywyznv","msl000062","rl","","","img/black_2bandit_a2.png","74","","0","test","","","0","square","circle","71","","0","3","","74","0.2","0.8","0.8474004338897304","0.8","0.2","0.8","square","3","0"
"null","","384944","SARL_v6xuywyznv","msl000062","feedback","","","img/boo_L_a.png","null","","na","test","","","","","","","","","3","","74","0.2","0.8","","","","0.8","","3",""
"383","","385332","SARL_v6xuywyznv","msl000062","freq","","","img/green_2bandit_a2.png","70","","70","test","1","","","square","circle","72","69","1","4","0.9420289855072463","","","","","","","","","",""
"null","","385754","SARL_v6xuywyznv","msl000062","freq_resp","","","img/green_2bandit_a.png","70","img/green_2bandit_a.png","70","test","","","","","","","","","4","","","","","","","","","","",""
"null","","385910","SARL_v6xuywyznv","msl000062","fixation","","","img/fixation.png","null","","","test","","","","","","","","","","","","","","","","","","","",""
"562","","386476","SARL_v6xuywyznv","msl000062","freq","","","img/green_2bandit_a2.png","70","","70","test","1","","","square","circle","73","70","2","4","0.9428571428571428","","","","","","","","","",""
"null","","386719","SARL_v6xuywyznv","msl000062","freq_resp","","","img/green_2bandit_a.png","70","img/green_2bandit_a.png","70","test","","","","","","","","","4","","","","","","","","","","",""
"null","","386874","SARL_v6xuywyznv","msl000062","fixation","","","img/fixation.png","null","","","test","","","","","","","","","","","","","","","","","","","",""
"560","","387440","SARL_v6xuywyznv","msl000062","freq","","","img/green_2bandit_a2.png","70","","70","test","1","","","square","circle","74","71","3","4","0.9436619718309859","","","","","","","","","",""
"null","","387686","SARL_v6xuywyznv","msl000062","freq_resp","","","img/green_2bandit_a.png","70","img/green_2bandit_a.png","70","test","","","","","","","","","4","","","","","","","","","","",""
"null","","387841","SARL_v6xuywyznv","msl000062","fixation","","","img/fixation.png","null","","","test","","","","","","","","","","","","","","","","","","","",""
"622","","388468","SARL_v6xuywyznv","msl000062","freq","","","img/green_2bandit_a2.png","70","","70","test","1","","","square","circle","75","72","4","4","0.9444444444444444","","","","","","","","","",""
"null","","388653","SARL_v6xuywyznv","msl000062","freq_resp","","","img/green_2bandit_a.png","70","img/green_2bandit_a.png","70","test","","","","","","","","","4","","","","","","","","","","",""
"null","","388808","SARL_v6xuywyznv","msl000062","fixation","","","img/fixation.png","null","","","test","","","","","","","","","","","","","","","","","","","",""
"659","","389472","SARL_v6xuywyznv","msl000062","freq","","","img/green_2bandit_a2.png","70","","70","test","1","","","square","circle","76","73","5","4","0.9452054794520548","","","","","","","","","",""
"null","","389619","SARL_v6xuywyznv","msl000062","freq_resp","","","img/green_2bandit_a.png","70","img/green_2bandit_a.png","70","test","","","","","","","","","4","","","","","","","","","","",""
"null","","389774","SARL_v6xuywyznv","msl000062","fixation","","","img/fixation.png","null","","","test","","","","","","","","","","","","","","","","","","","",""
"596","","390376","SARL_v6xuywyznv","msl000062","freq","","","img/green_2bandit_a2.png","70","","70","test","1","","","square","circle","77","74","6","4","0.9459459459459459","","","","","","","","","",""
"null","","390586","SARL_v6xuywyznv","msl000062","freq_resp","","","img/green_2bandit_a.png","70","img/green_2bandit_a.png","70","test","","","","","","","","","4","","","","","","","","","","",""
"null","","390743","SARL_v6xuywyznv","msl000062","fixation","","","img/fixation.png","null","","","test","","","","","","","","","","","","","","","","","","","",""
"608","","391355","SARL_v6xuywyznv","msl000062","freq","","","img/green_2bandit_a2.png","70","","70","test","1","","","square","circle","78","75","7","4","0.9466666666666667","","","","","","","","","",""
"null","","391553","SARL_v6xuywyznv","msl000062","freq_resp","","","img/green_2bandit_a.png","70","img/green_2bandit_a.png","70","test","","","","","","","","","4","","","","","","","","","","",""
"null","","391708","SARL_v6xuywyznv","msl000062","fixation","","","img/fixation.png","null","","","test","","","","","","","","","","","","","","","","","","","",""
"610","","392322","SARL_v6xuywyznv","msl000062","freq","","","img/green_2bandit_a2.png","70","","70","test","1","","","square","circle","79","76","8","4","0.9473684210526315","","","","","","","","","",""
"null","","392520","SARL_v6xuywyznv","msl000062","freq_resp","","","img/green_2bandit_a.png","70","img/green_2bandit_a.png","70","test","","","","","","","","","4","","","","","","","","","","",""
"null","","392676","SARL_v6xuywyznv","msl000062","fixation","","","img/fixation.png","null","","","test","","","","","","","","","","","","","","","","","","","",""
"603","","393283","SARL_v6xuywyznv","msl000062","freq","","","img/green_2bandit_a2.png","70","","70","test","1","","","square","circle","80","77","9","4","0.948051948051948","","","","","","","","","",""
"null","","393486","SARL_v6xuywyznv","msl000062","freq_resp","","","img/green_2bandit_a.png","70","img/green_2bandit_a.png","70","test","","","","","","","","","4","","","","","","","","","","",""
"null","","393642","SARL_v6xuywyznv","msl000062","fixation","","","img/fixation.png","null","","","test","","","","","","","","","","","","","","","","","","","",""
"525","","394172","SARL_v6xuywyznv","msl000062","freq","","","img/green_2bandit_a2.png","70","","70","test","1","","","square","circle","81","78","10","4","0.9487179487179487","","","","","","","","","",""
"null","","394453","SARL_v6xuywyznv","msl000062","freq_resp","","","img/green_2bandit_a.png","70","img/green_2bandit_a.png","70","test","","","","","","","","","4","","","","","","","","","","",""
"null","","394610","SARL_v6xuywyznv","msl000062","fixation","","","img/fixation.png","null","","","test","","","","","","","","","","","","","","","","","","","",""
"460","","395075","SARL_v6xuywyznv","msl000062","freq","","","img/green_2bandit_a2.png","70","","70","test","1","","","square","circle","82","79","11","4","0.9493670886075949","","","","","","","","","",""
"null","","395421","SARL_v6xuywyznv","msl000062","freq_resp","","","img/green_2bandit_a.png","70","img/green_2bandit_a.png","70","test","","","","","","","","","4","","","","","","","","","","",""
"null","","395576","SARL_v6xuywyznv","msl000062","fixation","","","img/fixation.png","null","","","test","","","","","","","","","","","","","","","","","","","",""
"437","","396018","SARL_v6xuywyznv","msl000062","infreq","","","img/orange_2bandit_a2.png","68","","68","test","1","","","square","circle","83","80","12","4","0.95","","","","","","","","","",""
"null","","396386","SARL_v6xuywyznv","msl000062","infreq_resp","","","img/orange_2bandit_a.png","68","img/orange_2bandit_a.png","68","test","","","","","","","","","4","","","","","","","","","","",""
"null","","396540","SARL_v6xuywyznv","msl000062","fixation","","","img/fixation.png","null","","","test","","","","","","","","","","","","","","","","","","","",""
"216","","396762","SARL_v6xuywyznv","msl000062","freq","","","img/green_2bandit_a2.png","70","","70","test","1","","","square","circle","84","81","13","4","0.9506172839506173","","","","","","","","","",""
"null","","397351","SARL_v6xuywyznv","msl000062","freq_resp","","","img/green_2bandit_a.png","70","img/green_2bandit_a.png","70","test","","","","","","","","","4","","","","","","","","","","",""
"null","","397506","SARL_v6xuywyznv","msl000062","fixation","","","img/fixation.png","null","","","test","","","","","","","","","","","","","","","","","","","",""
"162","","397673","SARL_v6xuywyznv","msl000062","freq","","","img/green_2bandit_a2.png","70","","70","test","1","","","square","circle","85","82","14","4","0.9512195121951219","","","","","","","","","",""
"null","","398317","SARL_v6xuywyznv","msl000062","freq_resp","","","img/green_2bandit_a.png","70","img/green_2bandit_a.png","70","test","","","","","","","","","4","","","","","","","","","","",""
"null","","398472","SARL_v6xuywyznv","msl000062","fixation","","","img/fixation.png","null","","","test","","","","","","","","","","","","","","","","","","","",""
"212","","398689","SARL_v6xuywyznv","msl000062","freq","","","img/green_2bandit_a2.png","70","","70","test","1","","","square","circle","86","83","15","4","0.9518072289156626","","","","","","","","","",""
"null","","399282","SARL_v6xuywyznv","msl000062","freq_resp","","","img/green_2bandit_a.png","70","img/green_2bandit_a.png","70","test","","","","","","","","","4","","","","","","","","","","",""
"null","","399438","SARL_v6xuywyznv","msl000062","fixation","","","img/fixation.png","null","","","test","","","","","","","","","","","","","","","","","","","",""
"159","","399602","SARL_v6xuywyznv","msl000062","freq","","","img/green_2bandit_a2.png","70","","70","test","1","","","square","circle","87","84","16","4","0.9523809523809523","","","","","","","","","",""
"null","","400248","SARL_v6xuywyznv","msl000062","freq_resp","","","img/green_2bandit_a.png","70","img/green_2bandit_a.png","70","test","","","","","","","","","4","","","","","","","","","","",""
"null","","400404","SARL_v6xuywyznv","msl000062","fixation","","","img/fixation.png","null","","","test","","","","","","","","","","","","","","","","","","","",""
"200","","400609","SARL_v6xuywyznv","msl000062","freq","","","img/green_2bandit_a2.png","70","","70","test","1","","","square","circle","88","85","17","4","0.9529411764705882","","","","","","","","","",""
"null","","401215","SARL_v6xuywyznv","msl000062","freq_resp","","","img/green_2bandit_a.png","70","img/green_2bandit_a.png","70","test","","","","","","","","","4","","","","","","","","","","",""
"null","","401371","SARL_v6xuywyznv","msl000062","fixation","","","img/fixation.png","null","","","test","","","","","","","","","","","","","","","","","","","",""
"173","","401549","SARL_v6xuywyznv","msl000062","freq","","","img/green_2bandit_a2.png","70","","70","test","1","","","square","circle","89","86","18","4","0.9534883720930233","","","","","","","","","",""
"null","","402181","SARL_v6xuywyznv","msl000062","freq_resp","","","img/green_2bandit_a.png","70","img/green_2bandit_a.png","70","test","","","","","","","","","4","","","","","","","","","","",""
"null","","402337","SARL_v6xuywyznv","msl000062","fixation","","","img/fixation.png","null","","","test","","","","","","","","","","","","","","","","","","","",""
"181","","402524","SARL_v6xuywyznv","msl000062","infreq","","","img/orange_2bandit_a2.png","70","","68","test","0","","","square","circle","90","87","19","4","0.9425287356321839","","","","","","","","","",""
"null","","403148","SARL_v6xuywyznv","msl000062","infreq_resp","","","img/orange_2bandit_a.png","70","img/orange_2bandit_a.png","68","test","","","","","","","","","4","","","","","","","","","","",""
"null","","403303","SARL_v6xuywyznv","msl000062","fixation","","","img/fixation.png","null","","","test","","","","","","","","","","","","","","","","","","","",""
"316","","403624","SARL_v6xuywyznv","msl000062","freq","","","img/green_2bandit_a2.png","70","","70","test","1","","","square","circle","91","88","20","4","0.9431818181818182","","","","","","","","","",""
"null","","404113","SARL_v6xuywyznv","msl000062","freq_resp","","","img/green_2bandit_a.png","70","img/green_2bandit_a.png","70","test","","","","","","","","","4","","","","","","","","","","",""
"null","","404269","SARL_v6xuywyznv","msl000062","fixation","","","img/fixation.png","null","","","test","","","","","","","","","","","","","","","","","","","",""
"269","","404542","SARL_v6xuywyznv","msl000062","freq","","","img/green_2bandit_a2.png","70","","70","test","1","","","square","circle","92","89","21","4","0.9438202247191011","","","","","","","","","",""
"null","","405079","SARL_v6xuywyznv","msl000062","freq_resp","","","img/green_2bandit_a.png","70","img/green_2bandit_a.png","70","test","","","","","","","","","4","","","","","","","","","","",""
"null","","405234","SARL_v6xuywyznv","msl000062","fixation","","","img/fixation.png","null","","","test","","","","","","","","","","","","","","","","","","","",""
"166","","405404","SARL_v6xuywyznv","msl000062","freq","","","img/green_2bandit_a2.png","70","","70","test","1","","","square","circle","93","90","22","4","0.9444444444444444","","","","","","","","","",""
"null","","406044","SARL_v6xuywyznv","msl000062","freq_resp","","","img/green_2bandit_a.png","70","img/green_2bandit_a.png","70","test","","","","","","","","","4","","","","","","","","","","",""
"null","","406198","SARL_v6xuywyznv","msl000062","fixation","","","img/fixation.png","null","","","test","","","","","","","","","","","","","","","","","","","",""
"155","","406359","SARL_v6xuywyznv","msl000062","freq","","","img/green_2bandit_a2.png","70","","70","test","1","","","square","circle","94","91","23","4","0.945054945054945","","","","","","","","","",""
"null","","407009","SARL_v6xuywyznv","msl000062","freq_resp","","","img/green_2bandit_a.png","70","img/green_2bandit_a.png","70","test","","","","","","","","","4","","","","","","","","","","",""
"null","","407165","SARL_v6xuywyznv","msl000062","fixation","","","img/fixation.png","null","","","test","","","","","","","","","","","","","","","","","","","",""
"76","","407246","SARL_v6xuywyznv","msl000062","freq","","","img/green_2bandit_a2.png","70","","70","test","1","","","square","circle","95","92","24","4","0.9456521739130435","","","","","","","","","",""
"null","","407975","SARL_v6xuywyznv","msl000062","freq_resp","","","img/green_2bandit_a.png","70","img/green_2bandit_a.png","70","test","","","","","","","","","4","","","","","","","","","","",""
"null","","408131","SARL_v6xuywyznv","msl000062","fixation","","","img/fixation.png","null","","","test","","","","","","","","","","","","","","","","","","","",""
"82","","408217","SARL_v6xuywyznv","msl000062","freq","","","img/green_2bandit_a2.png","70","","70","test","1","","","square","circle","96","93","25","4","0.946236559139785","","","","","","","","","",""
"null","","408941","SARL_v6xuywyznv","msl000062","freq_resp","","","img/green_2bandit_a.png","70","img/green_2bandit_a.png","70","test","","","","","","","","","4","","","","","","","","","","",""
"null","","409098","SARL_v6xuywyznv","msl000062","fixation","","","img/fixation.png","null","","","test","","","","","","","","","","","","","","","","","","","",""
"102","","409204","SARL_v6xuywyznv","msl000062","freq","","","img/green_2bandit_a2.png","70","","70","test","1","","","square","circle","97","94","26","4","0.9468085106382979","","","","","","","","","",""
"null","","409907","SARL_v6xuywyznv","msl000062","freq_resp","","","img/green_2bandit_a.png","70","img/green_2bandit_a.png","70","test","","","","","","","","","4","","","","","","","","","","",""
"null","","410063","SARL_v6xuywyznv","msl000062","fixation","","","img/fixation.png","null","","","test","","","","","","","","","","","","","","","","","","","",""
"833","","410901","SARL_v6xuywyznv","msl000062","rl","","","img/black_2bandit_a2.png","75","","0","test","","","0","square","circle","98","","0","4","","75","0.2","0.8","0.5388730577295837","0.8","0.2","0.2","circle","4","0"
"null","","411656","SARL_v6xuywyznv","msl000062","feedback","","","img/boo_R_a.png","null","","na","test","","","","","","","","","4","","75","0.2","0.8","","","","0.2","","4",""
"626","","412288","SARL_v6xuywyznv","msl000062","freq","","","img/green_2bandit_a2.png","70","","70","test","1","","","square","circle","99","95","1","5","0.9473684210526315","","","","","","","","","",""
"null","","412467","SARL_v6xuywyznv","msl000062","freq_resp","","","img/green_2bandit_a.png","70","img/green_2bandit_a.png","70","test","","","","","","","","","5","","","","","","","","","","",""
"null","","412623","SARL_v6xuywyznv","msl000062","fixation","","","img/fixation.png","null","","","test","","","","","","","","","","","","","","","","","","","",""
"789","","413416","SARL_v6xuywyznv","msl000062","freq","","","img/green_2bandit_a2.png","70","","70","test","1","","","square","circle","100","96","2","5","0.9479166666666666","","","","","","","","","",""
"null","","413432","SARL_v6xuywyznv","msl000062","freq_resp","","","img/green_2bandit_a.png","70","img/green_2bandit_a.png","70","test","","","","","","","","","5","","","","","","","","","","",""
"null","","413588","SARL_v6xuywyznv","msl000062","fixation","","","img/fixation.png","null","","","test","","","","","","","","","","","","","","","","","","","",""
"627","","414220","SARL_v6xuywyznv","msl000062","freq","","","img/green_2bandit_a2.png","70","","70","test","1","","","square","circle","101","97","3","5","0.9484536082474226","","","","","","","","","",""
"null","","414398","SARL_v6xuywyznv","msl000062","freq_resp","","","img/green_2bandit_a.png","70","img/green_2bandit_a.png","70","test","","","","","","","","","5","","","","","","","","","","",""
"null","","414556","SARL_v6xuywyznv","msl000062","fixation","","","img/fixation.png","null","","","test","","","","","","","","","","","","","","","","","","","",""
"574","","415134","SARL_v6xuywyznv","msl000062","freq","","","img/green_2bandit_a2.png","70","","70","test","1","","","square","circle","102","98","4","5","0.9489795918367347","","","","","","","","","",""
"null","","415366","SARL_v6xuywyznv","msl000062","freq_resp","","","img/green_2bandit_a.png","70","img/green_2bandit_a.png","70","test","","","","","","","","","5","","","","","","","","","","",""
"null","","415521","SARL_v6xuywyznv","msl000062","fixation","","","img/fixation.png","null","","","test","","","","","","","","","","","","","","","","","","","",""
"622","","416147","SARL_v6xuywyznv","msl000062","freq","","","img/green_2bandit_a2.png","70","","70","test","1","","","square","circle","103","99","5","5","0.9494949494949495","","","","","","","","","",""
"null","","416330","SARL_v6xuywyznv","msl000062","freq_resp","","","img/green_2bandit_a.png","70","img/green_2bandit_a.png","70","test","","","","","","","","","5","","","","","","","","","","",""
"null","","416485","SARL_v6xuywyznv","msl000062","fixation","","","img/fixation.png","null","","","test","","","","","","","","","","","","","","","","","","","",""
"801","","417290","SARL_v6xuywyznv","msl000062","freq","","","img/green_2bandit_a2.png","70","","70","test","1","","","square","circle","104","100","6","5","0.95","","","","","","","","","",""
"null","","417445","SARL_v6xuywyznv","msl000062","fixation","","","img/fixation.png","null","","","test","","","","","","","","","","","","","","","","","","","",""
"598","","418048","SARL_v6xuywyznv","msl000062","freq","","","img/green_2bandit_a2.png","70","","70","test","1","","","square","circle","105","101","7","5","0.9504950495049505","","","","","","","","","",""
"null","","418256","SARL_v6xuywyznv","msl000062","freq_resp","","","img/green_2bandit_a.png","70","img/green_2bandit_a.png","70","test","","","","","","","","","5","","","","","","","","","","",""
"null","","418411","SARL_v6xuywyznv","msl000062","fixation","","","img/fixation.png","null","","","test","","","","","","","","","","","","","","","","","","","",""
"527","","418943","SARL_v6xuywyznv","msl000062","freq","","","img/green_2bandit_a2.png","70","","70","test","1","","","square","circle","106","102","8","5","0.9509803921568627","","","","","","","","","",""
"null","","419221","SARL_v6xuywyznv","msl000062","freq_resp","","","img/green_2bandit_a.png","70","img/green_2bandit_a.png","70","test","","","","","","","","","5","","","","","","","","","","",""
"null","","419378","SARL_v6xuywyznv","msl000062","fixation","","","img/fixation.png","null","","","test","","","","","","","","","","","","","","","","","","","",""
"584","","419965","SARL_v6xuywyznv","msl000062","freq","","","img/green_2bandit_a2.png","70","","70","test","1","","","square","circle","107","103","9","5","0.9514563106796117","","","","","","","","","",""
"null","","420187","SARL_v6xuywyznv","msl000062","freq_resp","","","img/green_2bandit_a.png","70","img/green_2bandit_a.png","70","test","","","","","","","","","5","","","","","","","","","","",""
"null","","420342","SARL_v6xuywyznv","msl000062","fixation","","","img/fixation.png","null","","","test","","","","","","","","","","","","","","","","","","","",""
"534","","420880","SARL_v6xuywyznv","msl000062","freq","","","img/green_2bandit_a2.png","70","","70","test","1","","","square","circle","108","104","10","5","0.9519230769230769","","","","","","","","","",""
"null","","421152","SARL_v6xuywyznv","msl000062","freq_resp","","","img/green_2bandit_a.png","70","img/green_2bandit_a.png","70","test","","","","","","","","","5","","","","","","","","","","",""
"null","","421308","SARL_v6xuywyznv","msl000062","fixation","","","img/fixation.png","null","","","test","","","","","","","","","","","","","","","","","","","",""
"465","","421780","SARL_v6xuywyznv","msl000062","infreq","","","img/orange_2bandit_a2.png","68","","68","test","1","","","square","circle","109","105","11","5","0.9523809523809523","","","","","","","","","",""
"null","","422121","SARL_v6xuywyznv","msl000062","infreq_resp","","","img/orange_2bandit_a.png","68","img/orange_2bandit_a.png","68","test","","","","","","","","","5","","","","","","","","","","",""
"null","","422275","SARL_v6xuywyznv","msl000062","fixation","","","img/fixation.png","null","","","test","","","","","","","","","","","","","","","","","","","",""
"276","","422556","SARL_v6xuywyznv","msl000062","freq","","","img/green_2bandit_a2.png","70","","70","test","1","","","square","circle","110","106","12","5","0.9528301886792453","","","","","","","","","",""
"null","","423086","SARL_v6xuywyznv","msl000062","freq_resp","","","img/green_2bandit_a.png","70","img/green_2bandit_a.png","70","test","","","","","","","","","5","","","","","","","","","","",""
"null","","423242","SARL_v6xuywyznv","msl000062","fixation","","","img/fixation.png","null","","","test","","","","","","","","","","","","","","","","","","","",""
"179","","423426","SARL_v6xuywyznv","msl000062","freq","","","img/green_2bandit_a2.png","70","","70","test","1","","","square","circle","111","107","13","5","0.9532710280373832","","","","","","","","","",""
"null","","424052","SARL_v6xuywyznv","msl000062","freq_resp","","","img/green_2bandit_a.png","70","img/green_2bandit_a.png","70","test","","","","","","","","","5","","","","","","","","","","",""
"null","","424208","SARL_v6xuywyznv","msl000062","fixation","","","img/fixation.png","null","","","test","","","","","","","","","","","","","","","","","","","",""
"241","","424454","SARL_v6xuywyznv","msl000062","freq","","","img/green_2bandit_a2.png","70","","70","test","1","","","square","circle","112","108","14","5","0.9537037037037037","","","","","","","","","",""
"null","","425018","SARL_v6xuywyznv","msl000062","freq_resp","","","img/green_2bandit_a.png","70","img/green_2bandit_a.png","70","test","","","","","","","","","5","","","","","","","","","","",""
"null","","425174","SARL_v6xuywyznv","msl000062","fixation","","","img/fixation.png","null","","","test","","","","","","","","","","","","","","","","","","","",""
"302","","425479","SARL_v6xuywyznv","msl000062","freq","","","img/green_2bandit_a2.png","70","","70","test","1","","","square","circle","113","109","15","5","0.9541284403669725","","","","","","","","","",""
"null","","425984","SARL_v6xuywyznv","msl000062","freq_resp","","","img/green_2bandit_a.png","70","img/green_2bandit_a.png","70","test","","","","","","","","","5","","","","","","","","","","",""
"null","","426139","SARL_v6xuywyznv","msl000062","fixation","","","img/fixation.png","null","","","test","","","","","","","","","","","","","","","","","","","",""
"273","","426416","SARL_v6xuywyznv","msl000062","freq","","","img/green_2bandit_a2.png","70","","70","test","1","","","square","circle","114","110","16","5","0.9545454545454546","","","","","","","","","",""
"null","","426950","SARL_v6xuywyznv","msl000062","freq_resp","","","img/green_2bandit_a.png","70","img/green_2bandit_a.png","70","test","","","","","","","","","5","","","","","","","","","","",""
"null","","427106","SARL_v6xuywyznv","msl000062","fixation","","","img/fixation.png","null","","","test","","","","","","","","","","","","","","","","","","","",""
"187","","427297","SARL_v6xuywyznv","msl000062","freq","","","img/green_2bandit_a2.png","70","","70","test","1","","","square","circle","115","111","17","5","0.954954954954955","","","","","","","","","",""
"null","","427916","SARL_v6xuywyznv","msl000062","freq_resp","","","img/green_2bandit_a.png","70","img/green_2bandit_a.png","70","test","","","","","","","","","5","","","","","","","","","","",""
"null","","428073","SARL_v6xuywyznv","msl000062","fixation","","","img/fixation.png","null","","","test","","","","","","","","","","","","","","","","","","","",""
"237","","428314","SARL_v6xuywyznv","msl000062","freq","","","img/green_2bandit_a2.png","70","","70","test","1","","","square","circle","116","112","18","5","0.9553571428571429","","","","","","","","","",""
"null","","428882","SARL_v6xuywyznv","msl000062","freq_resp","","","img/green_2bandit_a.png","70","img/green_2bandit_a.png","70","test","","","","","","","","","5","","","","","","","","","","",""
"null","","429039","SARL_v6xuywyznv","msl000062","fixation","","","img/fixation.png","null","","","test","","","","","","","","","","","","","","","","","","","",""
"204","","429248","SARL_v6xuywyznv","msl000062","freq","","","img/green_2bandit_a2.png","70","","70","test","1","","","square","circle","117","113","19","5","0.9557522123893806","","","","","","","","","",""
"null","","429850","SARL_v6xuywyznv","msl000062","freq_resp","","","img/green_2bandit_a.png","70","img/green_2bandit_a.png","70","test","","","","","","","","","5","","","","","","","","","","",""
"null","","430005","SARL_v6xuywyznv","msl000062","fixation","","","img/fixation.png","null","","","test","","","","","","","","","","","","","","","","","","","",""
"316","","430327","SARL_v6xuywyznv","msl000062","infreq","","","img/orange_2bandit_a2.png","70","","68","test","0","","","square","circle","118","114","20","5","0.9473684210526315","","","","","","","","","",""
"null","","430817","SARL_v6xuywyznv","msl000062","infreq_resp","","","img/orange_2bandit_a.png","70","img/orange_2bandit_a.png","68","test","","","","","","","","","5","","","","","","","","","","",""
"null","","430971","SARL_v6xuywyznv","msl000062","fixation","","","img/fixation.png","null","","","test","","","","","","","","","","","","","","","","","","","",""
"476","","431453","SARL_v6xuywyznv","msl000062","freq","","","img/green_2bandit_a2.png","70","","70","test","1","","","square","circle","119","115","21","5","0.9478260869565217","","","","","","","","","",""
"null","","431783","SARL_v6xuywyznv","msl000062","freq_resp","","","img/green_2bandit_a.png","70","img/green_2bandit_a.png","70","test","","","","","","","","","5","","","","","","","","","","",""
"null","","431938","SARL_v6xuywyznv","msl000062","fixation","","","img/fixation.png","null","","","test","","","","","","","","","","","","","","","","","","","",""
"353","","432296","SARL_v6xuywyznv","msl000062","freq","","","img/green_2bandit_a2.png","70","","70","test","1","","","square","circle","120","116","22","5","0.9482758620689655","","","","","","","","","",""
"null","","432749","SARL_v6xuywyznv","msl000062","freq_resp","","","img/green_2bandit_a.png","70","img/green_2bandit_a.png","70","test","","","","","","","","","5","","","","","","","","","","",""
"null","","432906","SARL_v6xuywyznv","msl000062","fixation","","","img/fixation.png","null","","","test","","","","","","","","","","","","","","","","","","","",""
"378","","433289","SARL_v6xuywyznv","msl000062","freq","","","img/green_2bandit_a2.png","70","","70","test","1","","","square","circle","121","117","23","5","0.9487179487179487","","","","","","","","","",""
"null","","433718","SARL_v6xuywyznv","msl000062","freq_resp","","","img/green_2bandit_a.png","70","img/green_2bandit_a.png","70","test","","","","","","","","","5","","","","","","","","","","",""
"null","","433873","SARL_v6xuywyznv","msl000062","fixation","","","img/fixation.png","null","","","test","","","","","","","","","","","","","","","","","","","",""
"616","","434495","SARL_v6xuywyznv","msl000062","rl","","","img/black_2bandit_a2.png","75","","0","test","","","0","square","circle","122","","0","5","","75","0.2","0.8","0.7632452690518816","0.8","0.2","0.2","circle","5","0"
"null","","435251","SARL_v6xuywyznv","msl000062","feedback","","","img/boo_R_a.png","null","","na","test","","","","","","","","","5","","75","0.2","0.8","","","","0.2","","5",""
"535","","435791","SARL_v6xuywyznv","msl000062","freq","","","img/green_2bandit_a2.png","70","","70","test","1","","","square","circle","123","118","1","6","0.9491525423728814","","","","","","","","","",""
"null","","436061","SARL_v6xuywyznv","msl000062","freq_resp","","","img/green_2bandit_a.png","70","img/green_2bandit_a.png","70","test","","","","","","","","","6","","","","","","","","","","",""
"null","","436217","SARL_v6xuywyznv","msl000062","fixation","","","img/fixation.png","null","","","test","","","","","","","","","","","","","","","","","","","",""
"678","","436898","SARL_v6xuywyznv","msl000062","infreq","","","img/orange_2bandit_a2.png","68","","68","test","1","","","square","circle","124","119","2","6","0.9495798319327731","","","","","","","","","",""
"null","","437026","SARL_v6xuywyznv","msl000062","infreq_resp","","","img/orange_2bandit_a.png","68","img/orange_2bandit_a.png","68","test","","","","","","","","","6","","","","","","","","","","",""
"null","","437182","SARL_v6xuywyznv","msl000062","fixation","","","img/fixation.png","null","","","test","","","","","","","","","","","","","","","","","","","",""
"632","","437818","SARL_v6xuywyznv","msl000062","freq","","","img/green_2bandit_a2.png","70","","70","test","1","","","square","circle","125","120","3","6","0.95","","","","","","","","","",""
"null","","437992","SARL_v6xuywyznv","msl000062","freq_resp","","","img/green_2bandit_a.png","70","img/green_2bandit_a.png","70","test","","","","","","","","","6","","","","","","","","","","",""
"null","","438146","SARL_v6xuywyznv","msl000062","fixation","","","img/fixation.png","null","","","test","","","","","","","","","","","","","","","","","","","",""
"495","","438647","SARL_v6xuywyznv","msl000062","freq","","","img/green_2bandit_a2.png","70","","70","test","1","","","square","circle","126","121","4","6","0.9504132231404959","","","","","","","","","",""
"null","","438958","SARL_v6xuywyznv","msl000062","freq_resp","","","img/green_2bandit_a.png","70","img/green_2bandit_a.png","70","test","","","","","","","","","6","","","","","","","","","","",""
"null","","439115","SARL_v6xuywyznv","msl000062","fixation","","","img/fixation.png","null","","","test","","","","","","","","","","","","","","","","","","","",""
"385","","439503","SARL_v6xuywyznv","msl000062","freq","","","img/green_2bandit_a2.png","70","","70","test","1","","","square","circle","127","122","5","6","0.9508196721311475","","","","","","","","","",""
"null","","439925","SARL_v6xuywyznv","msl000062","freq_resp","","","img/green_2bandit_a.png","70","img/green_2bandit_a.png","70","test","","","","","","","","","6","","","","","","","","","","",""
"null","","440081","SARL_v6xuywyznv","msl000062","fixation","","","img/fixation.png","null","","","test","","","","","","","","","","","","","","","","","","","",""
"350","","440437","SARL_v6xuywyznv","msl000062","freq","","","img/green_2bandit_a2.png","70","","70","test","1","","","square","circle","128","123","6","6","0.9512195121951219","","","","","","","","","",""
"null","","440893","SARL_v6xuywyznv","msl000062","freq_resp","","","img/green_2bandit_a.png","70","img/green_2bandit_a.png","70","test","","","","","","","","","6","","","","","","","","","","",""
"null","","441049","SARL_v6xuywyznv","msl000062","fixation","","","img/fixation.png","null","","","test","","","","","","","","","","","","","","","","","","","",""
"296","","441350","SARL_v6xuywyznv","msl000062","freq","","","img/green_2bandit_a2.png","70","","70","test","1","","","square","circle","129","124","7","6","0.9516129032258065","","","","","","","","","",""
"null","","441861","SARL_v6xuywyznv","msl000062","freq_resp","","","img/green_2bandit_a.png","70","img/green_2bandit_a.png","70","test","","","","","","","","","6","","","","","","","","","","",""
"null","","442017","SARL_v6xuywyznv","msl000062","fixation","","","img/fixation.png","null","","","test","","","","","","","","","","","","","","","","","","","",""
"462","","442485","SARL_v6xuywyznv","msl000062","freq","","","img/green_2bandit_a2.png","70","","70","test","1","","","square","circle","130","125","8","6","0.952","","","","","","","","","",""
"null","","442828","SARL_v6xuywyznv","msl000062","freq_resp","","","img/green_2bandit_a.png","70","img/green_2bandit_a.png","70","test","","","","","","","","","6","","","","","","","","","","",""
"null","","442985","SARL_v6xuywyznv","msl000062","fixation","","","img/fixation.png","null","","","test","","","","","","","","","","","","","","","","","","","",""
"374","","443363","SARL_v6xuywyznv","msl000062","freq","","","img/green_2bandit_a2.png","70","","70","test","1","","","square","circle","131","126","9","6","0.9523809523809523","","","","","","","","","",""
"null","","443794","SARL_v6xuywyznv","msl000062","freq_resp","","","img/green_2bandit_a.png","70","img/green_2bandit_a.png","70","test","","","","","","","","","6","","","","","","","","","","",""
"null","","443949","SARL_v6xuywyznv","msl000062","fixation","","","img/fixation.png","null","","","test","","","","","","","","","","","","","","","","","","","",""
"464","","444418","SARL_v6xuywyznv","msl000062","freq","","","img/green_2bandit_a2.png","70","","70","test","1","","","square","circle","132","127","10","6","0.952755905511811","","","","","","","","","",""
"null","","444760","SARL_v6xuywyznv","msl000062","freq_resp","","","img/green_2bandit_a.png","70","img/green_2bandit_a.png","70","test","","","","","","","","","6","","","","","","","","","","",""
"null","","444914","SARL_v6xuywyznv","msl000062","fixation","","","img/fixation.png","null","","","test","","","","","","","","","","","","","","","","","","","",""
"353","","445272","SARL_v6xuywyznv","msl000062","freq","","","img/green_2bandit_a2.png","70","","70","test","1","","","square","circle","133","128","11","6","0.953125","","","","","","","","","",""
"null","","445724","SARL_v6xuywyznv","msl000062","freq_resp","","","img/green_2bandit_a.png","70","img/green_2bandit_a.png","70","test","","","","","","","","","6","","","","","","","","","","",""
"null","","445879","SARL_v6xuywyznv","msl000062","fixation","","","img/fixation.png","null","","","test","","","","","","","","","","","","","","","","","","","",""
"297","","446182","SARL_v6xuywyznv","msl000062","freq","","","img/green_2bandit_a2.png","70","","70","test","1","","","square","circle","134","129","12","6","0.9534883720930233","","","","","","","","","",""
"null","","446690","SARL_v6xuywyznv","msl000062","freq_resp","","","img/green_2bandit_a.png","70","img/green_2bandit_a.png","70","test","","","","","","","","","6","","","","","","","","","","",""
"null","","446847","SARL_v6xuywyznv","msl000062","fixation","","","img/fixation.png","null","","","test","","","","","","","","","","","","","","","","","","","",""
"271","","447123","SARL_v6xuywyznv","msl000062","infreq","","","img/orange_2bandit_a2.png","70","","68","test","0","","","square","circle","135","130","13","6","0.9461538461538461","","","","","","","","","",""
"null","","447658","SARL_v6xuywyznv","msl000062","infreq_resp","","","img/orange_2bandit_a.png","70","img/orange_2bandit_a.png","68","test","","","","","","","","","6","","","","","","","","","","",""
"null","","447815","SARL_v6xuywyznv","msl000062","fixation","","","img/fixation.png","null","","","test","","","","","","","","","","","","","","","","","","","",""
"534","","448353","SARL_v6xuywyznv","msl000062","freq","","","img/green_2bandit_a2.png","70","","70","test","1","","","square","circle","136","131","14","6","0.9465648854961832","","","","","","","","","",""
"null","","448624","SARL_v6xuywyznv","msl000062","freq_resp","","","img/green_2bandit_a.png","70","img/green_2bandit_a.png","70","test","","","","","","","","","6","","","","","","","","","","",""
"null","","448781","SARL_v6xuywyznv","msl000062","fixation","","","img/fixation.png","null","","","test","","","","","","","","","","","","","","","","","","","",""
"634","","449420","SARL_v6xuywyznv","msl000062","freq","","","img/green_2bandit_a2.png","70","","70","test","1","","","square","circle","137","132","15","6","0.946969696969697","","","","","","","","","",""
"null","","449592","SARL_v6xuywyznv","msl000062","freq_resp","","","img/green_2bandit_a.png","70","img/green_2bandit_a.png","70","test","","","","","","","","","6","","","","","","","","","","",""
"null","","449747","SARL_v6xuywyznv","msl000062","fixation","","","img/fixation.png","null","","","test","","","","","","","","","","","","","","","","","","","",""
"576","","450328","SARL_v6xuywyznv","msl000062","freq","","","img/green_2bandit_a2.png","70","","70","test","1","","","square","circle","138","133","16","6","0.9473684210526315","","","","","","","","","",""
"null","","450558","SARL_v6xuywyznv","msl000062","freq_resp","","","img/green_2bandit_a.png","70","img/green_2bandit_a.png","70","test","","","","","","","","","6","","","","","","","","","","",""
"null","","450712","SARL_v6xuywyznv","msl000062","fixation","","","img/fixation.png","null","","","test","","","","","","","","","","","","","","","","","","","",""
"558","","451275","SARL_v6xuywyznv","msl000062","freq","","","img/green_2bandit_a2.png","70","","70","test","1","","","square","circle","139","134","17","6","0.9477611940298507","","","","","","","","","",""
"null","","451522","SARL_v6xuywyznv","msl000062","freq_resp","","","img/green_2bandit_a.png","70","img/green_2bandit_a.png","70","test","","","","","","","","","6","","","","","","","","","","",""
"null","","451678","SARL_v6xuywyznv","msl000062","fixation","","","img/fixation.png","null","","","test","","","","","","","","","","","","","","","","","","","",""
"523","","452205","SARL_v6xuywyznv","msl000062","freq","","","img/green_2bandit_a2.png","70","","70","test","1","","","square","circle","140","135","18","6","0.9481481481481482","","","","","","","","","",""
"null","","452487","SARL_v6xuywyznv","msl000062","freq_resp","","","img/green_2bandit_a.png","70","img/green_2bandit_a.png","70","test","","","","","","","","","6","","","","","","","","","","",""
"null","","452642","SARL_v6xuywyznv","msl000062","fixation","","","img/fixation.png","null","","","test","","","","","","","","","","","","","","","","","","","",""
"444","","453090","SARL_v6xuywyznv","msl000062","freq","","","img/green_2bandit_a2.png","70","","70","test","1","","","square","circle","141","136","19","6","0.9485294117647058","","","","","","","","","",""
"null","","453453","SARL_v6xuywyznv","msl000062","freq_resp","","","img/green_2bandit_a.png","70","img/green_2bandit_a.png","70","test","","","","","","","","","6","","","","","","","","","","",""
"null","","453608","SARL_v6xuywyznv","msl000062","fixation","","","img/fixation.png","null","","","test","","","","","","","","","","","","","","","","","","","",""
"532","","454145","SARL_v6xuywyznv","msl000062","infreq","","","img/orange_2bandit_a2.png","68","","68","test","1","","","square","circle","142","137","20","6","0.948905109489051","","","","","","","","","",""
"null","","454418","SARL_v6xuywyznv","msl000062","infreq_resp","","","img/orange_2bandit_a.png","68","img/orange_2bandit_a.png","68","test","","","","","","","","","6","","","","","","","","","","",""
"null","","454575","SARL_v6xuywyznv","msl000062","fixation","","","img/fixation.png","null","","","test","","","","","","","","","","","","","","","","","","","",""
"500","","455080","SARL_v6xuywyznv","msl000062","freq","","","img/green_2bandit_a2.png","70","","70","test","1","","","square","circle","143","138","21","6","0.9492753623188406","","","","","","","","","",""
"null","","455386","SARL_v6xuywyznv","msl000062","freq_resp","","","img/green_2bandit_a.png","70","img/green_2bandit_a.png","70","test","","","","","","","","","6","","","","","","","","","","",""
"null","","455543","SARL_v6xuywyznv","msl000062","fixation","","","img/fixation.png","null","","","test","","","","","","","","","","","","","","","","","","","",""
"381","","455929","SARL_v6xuywyznv","msl000062","freq","","","img/green_2bandit_a2.png","70","","70","test","1","","","square","circle","144","139","22","6","0.9496402877697842","","","","","","","","","",""
"null","","456354","SARL_v6xuywyznv","msl000062","freq_resp","","","img/green_2bandit_a.png","70","img/green_2bandit_a.png","70","test","","","","","","","","","6","","","","","","","","","","",""
"null","","456510","SARL_v6xuywyznv","msl000062","fixation","","","img/fixation.png","null","","","test","","","","","","","","","","","","","","","","","","","",""
"416","","456931","SARL_v6xuywyznv","msl000062","freq","","","img/green_2bandit_a2.png","70","","70","test","1","","","square","circle","145","140","23","6","0.95","","","","","","","","","",""
"null","","457320","SARL_v6xuywyznv","msl000062","freq_resp","","","img/green_2bandit_a.png","70","img/green_2bandit_a.png","70","test","","","","","","","","","6","","","","","","","","","","",""
"null","","457476","SARL_v6xuywyznv","msl000062","fixation","","","img/fixation.png","null","","","test","","","","","","","","","","","","","","","","","","","",""
"391","","457871","SARL_v6xuywyznv","msl000062","freq","","","img/green_2bandit_a2.png","70","","70","test","1","","","square","circle","146","141","24","6","0.950354609929078","","","","","","","","","",""
"null","","458287","SARL_v6xuywyznv","msl000062","freq_resp","","","img/green_2bandit_a.png","70","img/green_2bandit_a.png","70","test","","","","","","","","","6","","","","","","","","","","",""
"null","","458443","SARL_v6xuywyznv","msl000062","fixation","","","img/fixation.png","null","","","test","","","","","","","","","","","","","","","","","","","",""
"461","","458909","SARL_v6xuywyznv","msl000062","freq","","","img/green_2bandit_a2.png","70","","70","test","1","","","square","circle","147","142","25","6","0.9507042253521126","","","","","","","","","",""
"null","","459254","SARL_v6xuywyznv","msl000062","freq_resp","","","img/green_2bandit_a.png","70","img/green_2bandit_a.png","70","test","","","","","","","","","6","","","","","","","","","","",""
"null","","459410","SARL_v6xuywyznv","msl000062","fixation","","","img/fixation.png","null","","","test","","","","","","","","","","","","","","","","","","","",""
"387","","459802","SARL_v6xuywyznv","msl000062","freq","","","img/green_2bandit_a2.png","70","","70","test","1","","","square","circle","148","143","26","6","0.951048951048951","","","","","","","","","",""
"null","","460220","SARL_v6xuywyznv","msl000062","freq_resp","","","img/green_2bandit_a.png","70","img/green_2bandit_a.png","70","test","","","","","","","","","6","","","","","","","","","","",""
"null","","460375","SARL_v6xuywyznv","msl000062","fixation","","","img/fixation.png","null","","","test","","","","","","","","","","","","","","","","","","","",""
"373","","460752","SARL_v6xuywyznv","msl000062","freq","","","img/green_2bandit_a2.png","70","","70","test","1","","","square","circle","149","144","27","6","0.9513888888888888","","","","","","","","","",""
"null","","461185","SARL_v6xuywyznv","msl000062","freq_resp","","","img/green_2bandit_a.png","70","img/green_2bandit_a.png","70","test","","","","","","","","","6","","","","","","","","","","",""
"null","","461340","SARL_v6xuywyznv","msl000062","fixation","","","img/fixation.png","null","","","test","","","","","","","","","","","","","","","","","","","",""
"415","","461760","SARL_v6xuywyznv","msl000062","infreq","","","img/orange_2bandit_a2.png","68","","68","test","1","","","square","circle","150","145","28","6","0.9517241379310345","","","","","","","","","",""
