"rt","responses","time_elapsed","subject","demoID","trialType","rlType","attType","stimulus","key_press","stim","corrresp","phase","corr","pracCounter","reward","bandOne","bandTwo","trialNum","attentionNum","attentionRunNum","blockNum","performance","bandChosen","circleVal","squareVal","coin","bandOneVal","bandTwoVal","pReward","shapeChosen","rlNum","badFlag"
"65224","{""Q0"":""msl000125""}","65248","SARL_v6j50z1e9w","msl000125","","","","","","","","","","","","","","","","","","","","","","","","","","","",""
"1374","","66628","SARL_v6j50z1e9w","msl000125","","","","","","","","","","","","","","","","","","","","","","","","","","","",""
"","","68835","SARL_v6j50z1e9w","msl000125","fullscreen","fullscreen","fullscreen","","","","","","","","","","","","","","","","","","","","","","","","",""
"114402","","183243","SARL_v6j50z1e9w","msl000125","","","","","","","","","","","","","","","","","","","","","","","","","","","",""
"null","","184050","SARL_v6j50z1e9w","msl000125","freqPrac","","","img/green_2bandit_a2.png","null","img/green_2bandit_a2.png","70","prac","0","1","","","","","","","","","","","","","","","","","",""
"null","","185057","SARL_v6j50z1e9w","msl000125","feedback","","","img/tooSlow.png","null","","na","prac","","","","","","","","","","","","","","","","","","","",""
"null","","185213","SARL_v6j50z1e9w","msl000125","fixation","","","img/fixation.png","null","","","prac","","","","","","","","","","","","","","","","","","","",""
"619","","185837","SARL_v6j50z1e9w","msl000125","infreqPrac","","","img/orange_2bandit_a2.png","68","img/orange_2bandit_a2.png","68","prac","1","1","","","","","","","","","","","","","","","","","",""
"619","","186023","SARL_v6j50z1e9w","msl000125","infreqPrac_resp","","","img/orange_2bandit_a.png","68","img/orange_2bandit_a.png","68","prac","","","","","","","","","","","","","","","","","","","",""
"null","","186178","SARL_v6j50z1e9w","msl000125","fixation","","","img/fixation.png","null","","","prac","","","","","","","","","","","","","","","","","","","",""
"516","","186699","SARL_v6j50z1e9w","msl000125","freqPrac","","","img/green_2bandit_a2.png","70","img/green_2bandit_a2.png","70","prac","1","1","","","","","","","","","","","","","","","","","",""
"516","","186989","SARL_v6j50z1e9w","msl000125","freqPrac_resp","","","img/green_2bandit_a.png","70","img/green_2bandit_a.png","70","prac","","","","","","","","","","","","","","","","","","","",""
"null","","187145","SARL_v6j50z1e9w","msl000125","fixation","","","img/fixation.png","null","","","prac","","","","","","","","","","","","","","","","","","","",""
"545","","187694","SARL_v6j50z1e9w","msl000125","infreqPrac","","","img/orange_2bandit_a2.png","68","img/orange_2bandit_a2.png","68","prac","1","1","","","","","","","","","","","","","","","","","",""
"545","","187953","SARL_v6j50z1e9w","msl000125","infreqPrac_resp","","","img/orange_2bandit_a.png","68","img/orange_2bandit_a.png","68","prac","","","","","","","","","","","","","","","","","","","",""
"null","","188109","SARL_v6j50z1e9w","msl000125","fixation","","","img/fixation.png","null","","","prac","","","","","","","","","","","","","","","","","","","",""
"424","","188540","SARL_v6j50z1e9w","msl000125","infreqPrac","","","img/orange_2bandit_a2.png","68","img/orange_2bandit_a2.png","68","prac","1","1","","","","","","","","","","","","","","","","","",""
"424","","188921","SARL_v6j50z1e9w","msl000125","infreqPrac_resp","","","img/orange_2bandit_a.png","68","img/orange_2bandit_a.png","68","prac","","","","","","","","","","","","","","","","","","","",""
"null","","189076","SARL_v6j50z1e9w","msl000125","fixation","","","img/fixation.png","null","","","prac","","","","","","","","","","","","","","","","","","","",""
"549","","189629","SARL_v6j50z1e9w","msl000125","infreqPrac","","","img/orange_2bandit_a2.png","68","img/orange_2bandit_a2.png","68","prac","1","1","","","","","","","","","","","","","","","","","",""
"549","","189885","SARL_v6j50z1e9w","msl000125","infreqPrac_resp","","","img/orange_2bandit_a.png","68","img/orange_2bandit_a.png","68","prac","","","","","","","","","","","","","","","","","","","",""
"null","","190041","SARL_v6j50z1e9w","msl000125","fixation","","","img/fixation.png","null","","","prac","","","","","","","","","","","","","","","","","","","",""
"544","","190590","SARL_v6j50z1e9w","msl000125","freqPrac","","","img/green_2bandit_a2.png","70","img/green_2bandit_a2.png","70","prac","1","1","","","","","","","","","","","","","","","","","",""
"544","","190851","SARL_v6j50z1e9w","msl000125","freqPrac_resp","","","img/green_2bandit_a.png","70","img/green_2bandit_a.png","70","prac","","","","","","","","","","","","","","","","","","","",""
"null","","191006","SARL_v6j50z1e9w","msl000125","fixation","","","img/fixation.png","null","","","prac","","","","","","","","","","","","","","","","","","","",""
"487","","191498","SARL_v6j50z1e9w","msl000125","infreqPrac","","","img/orange_2bandit_a2.png","68","img/orange_2bandit_a2.png","68","prac","1","1","","","","","","","","","","","","","","","","","",""
"487","","191816","SARL_v6j50z1e9w","msl000125","infreqPrac_resp","","","img/orange_2bandit_a.png","68","img/orange_2bandit_a.png","68","prac","","","","","","","","","","","","","","","","","","","",""
"null","","191972","SARL_v6j50z1e9w","msl000125","fixation","","","img/fixation.png","null","","","prac","","","","","","","","","","","","","","","","","","","",""
"449","","192426","SARL_v6j50z1e9w","msl000125","freqPrac","","","img/green_2bandit_a2.png","70","img/green_2bandit_a2.png","70","prac","1","1","","","","","","","","","","","","","","","","","",""
"449","","192782","SARL_v6j50z1e9w","msl000125","freqPrac_resp","","","img/green_2bandit_a.png","70","img/green_2bandit_a.png","70","prac","","","","","","","","","","","","","","","","","","","",""
"null","","192937","SARL_v6j50z1e9w","msl000125","fixation","","","img/fixation.png","null","","","prac","","","","","","","","","","","","","","","","","","","",""
"468","","193411","SARL_v6j50z1e9w","msl000125","freqPrac","","","img/green_2bandit_a2.png","70","img/green_2bandit_a2.png","70","prac","1","1","","","","","","","","","","","","","","","","","",""
"468","","193748","SARL_v6j50z1e9w","msl000125","freqPrac_resp","","","img/green_2bandit_a.png","70","img/green_2bandit_a.png","70","prac","","","","","","","","","","","","","","","","","","","",""
"null","","193902","SARL_v6j50z1e9w","msl000125","fixation","","","img/fixation.png","null","","","prac","","","","","","","","","","","","","","","","","","","",""
"64706","","258614","SARL_v6j50z1e9w","msl000125","","","","","","","","prac","","","","","","","","","","","","","","","","","","","",""
"1163","","259783","SARL_v6j50z1e9w","msl000125","rlPractice","","","img/black_2bandit_a2.png","74","img/black_2bandit_a2.png","","prac","","","75","","","","","","","","","","","","","","","","",""
"null","","260538","SARL_v6j50z1e9w","msl000125","feedback","","","img/boo_L_a.png","null","","na","prac","","","","","","","","","","","","","","","","","","","",""
"null","","260694","SARL_v6j50z1e9w","msl000125","fixation","","","img/fixation.png","null","","","prac","","","","","","","","","","","","","","","","","","","",""
"574","","261274","SARL_v6j50z1e9w","msl000125","rlPractice","","","img/black_2bandit_a2.png","75","img/black_2bandit_a2.png","","prac","","","75","","","","","","","","","","","","","","","","",""
"null","","262029","SARL_v6j50z1e9w","msl000125","feedback","","","img/yay_R_a.png","null","","na","prac","","","","","","","","","","","","","","","","","","","",""
"null","","262185","SARL_v6j50z1e9w","msl000125","fixation","","","img/fixation.png","null","","","prac","","","","","","","","","","","","","","","","","","","",""
"1002","","263192","SARL_v6j50z1e9w","msl000125","rlPractice","","","img/black_2bandit_a2.png","75","img/black_2bandit_a2.png","","prac","","","75","","","","","","","","","","","","","","","","",""
"null","","263947","SARL_v6j50z1e9w","msl000125","feedback","","","img/yay_R_a.png","null","","na","prac","","","","","","","","","","","","","","","","","","","",""
"null","","264103","SARL_v6j50z1e9w","msl000125","fixation","","","img/fixation.png","null","","","prac","","","","","","","","","","","","","","","","","","","",""
"635","","264743","SARL_v6j50z1e9w","msl000125","rlPractice","","","img/black_2bandit_a2.png","75","img/black_2bandit_a2.png","","prac","","","75","","","","","","","","","","","","","","","","",""
"null","","265499","SARL_v6j50z1e9w","msl000125","feedback","","","img/yay_R_a.png","null","","na","prac","","","","","","","","","","","","","","","","","","","",""
"null","","265655","SARL_v6j50z1e9w","msl000125","fixation","","","img/fixation.png","null","","","prac","","","","","","","","","","","","","","","","","","","",""
"611","","266271","SARL_v6j50z1e9w","msl000125","rlPractice","","","img/black_2bandit_a2.png","74","img/black_2bandit_a2.png","","prac","","","75","","","","","","","","","","","","","","","","",""
"null","","267026","SARL_v6j50z1e9w","msl000125","feedback","","","img/boo_L_a.png","null","","na","prac","","","","","","","","","","","","","","","","","","","",""
"null","","267181","SARL_v6j50z1e9w","msl000125","fixation","","","img/fixation.png","null","","","prac","","","","","","","","","","","","","","","","","","","",""
"386","","267574","SARL_v6j50z1e9w","msl000125","rlPractice","","","img/black_2bandit_a2.png","75","img/black_2bandit_a2.png","","prac","","","75","","","","","","","","","","","","","","","","",""
"null","","268329","SARL_v6j50z1e9w","msl000125","feedback","","","img/yay_R_a.png","null","","na","prac","","","","","","","","","","","","","","","","","","","",""
"null","","268484","SARL_v6j50z1e9w","msl000125","fixation","","","img/fixation.png","null","","","prac","","","","","","","","","","","","","","","","","","","",""
"310","","268800","SARL_v6j50z1e9w","msl000125","rlPractice","","","img/black_2bandit_a2.png","75","img/black_2bandit_a2.png","","prac","","","75","","","","","","","","","","","","","","","","",""
"null","","269555","SARL_v6j50z1e9w","msl000125","feedback","","","img/yay_R_a.png","null","","na","prac","","","","","","","","","","","","","","","","","","","",""
"null","","269711","SARL_v6j50z1e9w","msl000125","fixation","","","img/fixation.png","null","","","prac","","","","","","","","","","","","","","","","","","","",""
"22167","","291882","SARL_v6j50z1e9w","msl000125","","","","","","","","prac","","","","","","","","","","","","","","","","","","","",""
"null","","292687","SARL_v6j50z1e9w","msl000125","mixAttFreqPrac","","","img/green_2bandit_a2.png","null","img/green_2bandit_a2.png","70","prac","","","","","","","","","","","","","","","","","","","",""
"null","","292842","SARL_v6j50z1e9w","msl000125","fixation","","","img/fixation.png","null","","","prac","","","","","","","","","","","","","","","","","","","",""
"53","","292901","SARL_v6j50z1e9w","msl000125","mixAttInfreqPrac","","","img/orange_2bandit_a2.png","70","img/orange_2bandit_a2.png","68","prac","","","","","","","","","","","","","","","","","","","",""
"53","","293653","SARL_v6j50z1e9w","msl000125","infreqPrac_resp","","","img/orange_2bandit_a.png","70","img/green_2bandit_a.png","68","prac","","","","","","","","","","","","","","","","","","","",""
"null","","293808","SARL_v6j50z1e9w","msl000125","fixation","","","img/fixation.png","null","","","prac","","","","","","","","","","","","","","","","","","","",""
"null","","294613","SARL_v6j50z1e9w","msl000125","mixAttInfreqPrac","","","img/orange_2bandit_a2.png","null","img/orange_2bandit_a2.png","68","prac","","","","","","","","","","","","","","","","","","","",""
"145","","294768","SARL_v6j50z1e9w","msl000125","fixation","","","img/fixation.png","68","","","prac","","","","","","","","","","","","","","","","","","","",""
"null","","295574","SARL_v6j50z1e9w","msl000125","mixAttInfreqPrac","","","img/orange_2bandit_a2.png","null","img/orange_2bandit_a2.png","68","prac","","","","","","","","","","","","","","","","","","","",""
"null","","295729","SARL_v6j50z1e9w","msl000125","fixation","","","img/fixation.png","null","","","prac","","","","","","","","","","","","","","","","","","","",""
"279","","296013","SARL_v6j50z1e9w","msl000125","mixAttFreqPrac","","","img/green_2bandit_a2.png","68","img/green_2bandit_a2.png","70","prac","","","","","","","","","","","","","","","","","","","",""
"279","","296540","SARL_v6j50z1e9w","msl000125","freqPrac_resp","","","img/green_2bandit_a.png","68","img/green_2bandit_a.png","70","prac","","","","","","","","","","","","","","","","","","","",""
"null","","296696","SARL_v6j50z1e9w","msl000125","fixation","","","img/fixation.png","null","","","prac","","","","","","","","","","","","","","","","","","","",""
"1158","","297860","SARL_v6j50z1e9w","msl000125","mixRLPractice","","","img/black_2bandit_a2.png","74","img/black_2bandit_a2.png","","prac","","","","","","","","","","","","","","","","","","","",""
"null","","298615","SARL_v6j50z1e9w","msl000125","feedback","","","img/boo_L_a.png","null","","na","prac","","","","","","","","","","","","","","","","","","","",""
"null","","299420","SARL_v6j50z1e9w","msl000125","mixAttFreqPrac","","","img/green_2bandit_a2.png","null","img/green_2bandit_a2.png","70","prac","","","","","","","","","","","","","","","","","","","",""
"null","","299575","SARL_v6j50z1e9w","msl000125","fixation","","","img/fixation.png","null","","","prac","","","","","","","","","","","","","","","","","","","",""
"280","","299860","SARL_v6j50z1e9w","msl000125","mixAttInfreqPrac","","","img/orange_2bandit_a2.png","70","img/orange_2bandit_a2.png","68","prac","","","","","","","","","","","","","","","","","","","",""
"280","","300385","SARL_v6j50z1e9w","msl000125","infreqPrac_resp","","","img/orange_2bandit_a.png","70","img/green_2bandit_a.png","68","prac","","","","","","","","","","","","","","","","","","","",""
"null","","300542","SARL_v6j50z1e9w","msl000125","fixation","","","img/fixation.png","null","","","prac","","","","","","","","","","","","","","","","","","","",""
"630","","301177","SARL_v6j50z1e9w","msl000125","mixAttFreqPrac","","","img/green_2bandit_a2.png","70","img/green_2bandit_a2.png","70","prac","","","","","","","","","","","","","","","","","","","",""
"630","","301351","SARL_v6j50z1e9w","msl000125","freqPrac_resp","","","img/green_2bandit_a.png","70","img/green_2bandit_a.png","70","prac","","","","","","","","","","","","","","","","","","","",""
"null","","301507","SARL_v6j50z1e9w","msl000125","fixation","","","img/fixation.png","null","","","prac","","","","","","","","","","","","","","","","","","","",""
"499","","302010","SARL_v6j50z1e9w","msl000125","mixAttFreqPrac","","","img/green_2bandit_a2.png","70","img/green_2bandit_a2.png","70","prac","","","","","","","","","","","","","","","","","","","",""
"499","","302318","SARL_v6j50z1e9w","msl000125","freqPrac_resp","","","img/green_2bandit_a.png","70","img/green_2bandit_a.png","70","prac","","","","","","","","","","","","","","","","","","","",""
"null","","302473","SARL_v6j50z1e9w","msl000125","fixation","","","img/fixation.png","null","","","prac","","","","","","","","","","","","","","","","","","","",""
"538","","303015","SARL_v6j50z1e9w","msl000125","mixAttInfreqPrac","","","img/orange_2bandit_a2.png","68","img/orange_2bandit_a2.png","68","prac","","","","","","","","","","","","","","","","","","","",""
"538","","303283","SARL_v6j50z1e9w","msl000125","infreqPrac_resp","","","img/orange_2bandit_a.png","68","img/green_2bandit_a.png","68","prac","","","","","","","","","","","","","","","","","","","",""
"null","","303438","SARL_v6j50z1e9w","msl000125","fixation","","","img/fixation.png","null","","","prac","","","","","","","","","","","","","","","","","","","",""
"1052","","304495","SARL_v6j50z1e9w","msl000125","mixRLPractice","","","img/black_2bandit_a2.png","75","img/black_2bandit_a2.png","","prac","","","","","","","","","","","","","","","","","","","",""
"null","","305251","SARL_v6j50z1e9w","msl000125","feedback","","","img/boo_R_a.png","null","","na","prac","","","","","","","","","","","","","","","","","","","",""
"54311","","359570","SARL_v6j50z1e9w","msl000125","","","","","","","","prac","","","","","","","","","","","","","","","","","","","",""
"544","","360120","SARL_v6j50z1e9w","msl000125","freq","","","img/green_2bandit_a2.png","70","","70","test","1","","","square","circle","1","1","1","1","1","","","","","","","","","",""
"null","","360382","SARL_v6j50z1e9w","msl000125","freq_resp","","","img/green_2bandit_a.png","70","img/green_2bandit_a.png","70","test","","","","","","","","","1","","","","","","","","","","",""
"null","","360538","SARL_v6j50z1e9w","msl000125","fixation","","","img/fixation.png","null","","","test","","","","","","","","","","","","","","","","","","","",""
"449","","360993","SARL_v6j50z1e9w","msl000125","freq","","","img/green_2bandit_a2.png","70","","70","test","1","","","square","circle","2","2","2","1","1","","","","","","","","","",""
"null","","361350","SARL_v6j50z1e9w","msl000125","freq_resp","","","img/green_2bandit_a.png","70","img/green_2bandit_a.png","70","test","","","","","","","","","1","","","","","","","","","","",""
"null","","361506","SARL_v6j50z1e9w","msl000125","fixation","","","img/fixation.png","null","","","test","","","","","","","","","","","","","","","","","","","",""
"309","","361820","SARL_v6j50z1e9w","msl000125","freq","","","img/green_2bandit_a2.png","70","","70","test","1","","","square","circle","3","3","3","1","1","","","","","","","","","",""
"null","","362316","SARL_v6j50z1e9w","msl000125","freq_resp","","","img/green_2bandit_a.png","70","img/green_2bandit_a.png","70","test","","","","","","","","","1","","","","","","","","","","",""
"null","","362472","SARL_v6j50z1e9w","msl000125","fixation","","","img/fixation.png","null","","","test","","","","","","","","","","","","","","","","","","","",""
"372","","362849","SARL_v6j50z1e9w","msl000125","freq","","","img/green_2bandit_a2.png","70","","70","test","1","","","square","circle","4","4","4","1","1","","","","","","","","","",""
"null","","363282","SARL_v6j50z1e9w","msl000125","freq_resp","","","img/green_2bandit_a.png","70","img/green_2bandit_a.png","70","test","","","","","","","","","1","","","","","","","","","","",""
"null","","363437","SARL_v6j50z1e9w","msl000125","fixation","","","img/fixation.png","null","","","test","","","","","","","","","","","","","","","","","","","",""
"286","","363727","SARL_v6j50z1e9w","msl000125","freq","","","img/green_2bandit_a2.png","70","","70","test","1","","","square","circle","5","5","5","1","1","","","","","","","","","",""
"null","","364246","SARL_v6j50z1e9w","msl000125","freq_resp","","","img/green_2bandit_a.png","70","img/green_2bandit_a.png","70","test","","","","","","","","","1","","","","","","","","","","",""
"null","","364402","SARL_v6j50z1e9w","msl000125","fixation","","","img/fixation.png","null","","","test","","","","","","","","","","","","","","","","","","","",""
"295","","364701","SARL_v6j50z1e9w","msl000125","freq","","","img/green_2bandit_a2.png","70","","70","test","1","","","square","circle","6","6","6","1","1","","","","","","","","","",""
"null","","365212","SARL_v6j50z1e9w","msl000125","freq_resp","","","img/green_2bandit_a.png","70","img/green_2bandit_a.png","70","test","","","","","","","","","1","","","","","","","","","","",""
"null","","365367","SARL_v6j50z1e9w","msl000125","fixation","","","img/fixation.png","null","","","test","","","","","","","","","","","","","","","","","","","",""
"519","","365891","SARL_v6j50z1e9w","msl000125","infreq","","","img/orange_2bandit_a2.png","68","","68","test","1","","","square","circle","7","7","7","1","1","","","","","","","","","",""
"null","","366179","SARL_v6j50z1e9w","msl000125","infreq_resp","","","img/orange_2bandit_a.png","68","img/orange_2bandit_a.png","68","test","","","","","","","","","1","","","","","","","","","","",""
"null","","366333","SARL_v6j50z1e9w","msl000125","fixation","","","img/fixation.png","null","","","test","","","","","","","","","","","","","","","","","","","",""
"542","","366881","SARL_v6j50z1e9w","msl000125","freq","","","img/green_2bandit_a2.png","70","","70","test","1","","","square","circle","8","8","8","1","1","","","","","","","","","",""
"null","","367144","SARL_v6j50z1e9w","msl000125","freq_resp","","","img/green_2bandit_a.png","70","img/green_2bandit_a.png","70","test","","","","","","","","","1","","","","","","","","","","",""
"null","","367300","SARL_v6j50z1e9w","msl000125","fixation","","","img/fixation.png","null","","","test","","","","","","","","","","","","","","","","","","","",""
"323","","367629","SARL_v6j50z1e9w","msl000125","freq","","","img/green_2bandit_a2.png","70","","70","test","1","","","square","circle","9","9","9","1","1","","","","","","","","","",""
"null","","368111","SARL_v6j50z1e9w","msl000125","freq_resp","","","img/green_2bandit_a.png","70","img/green_2bandit_a.png","70","test","","","","","","","","","1","","","","","","","","","","",""
"null","","368267","SARL_v6j50z1e9w","msl000125","fixation","","","img/fixation.png","null","","","test","","","","","","","","","","","","","","","","","","","",""
"353","","368624","SARL_v6j50z1e9w","msl000125","freq","","","img/green_2bandit_a2.png","70","","70","test","1","","","square","circle","10","10","10","1","1","","","","","","","","","",""
"null","","369076","SARL_v6j50z1e9w","msl000125","freq_resp","","","img/green_2bandit_a.png","70","img/green_2bandit_a.png","70","test","","","","","","","","","1","","","","","","","","","","",""
"null","","369231","SARL_v6j50z1e9w","msl000125","fixation","","","img/fixation.png","null","","","test","","","","","","","","","","","","","","","","","","","",""
"275","","369510","SARL_v6j50z1e9w","msl000125","freq","","","img/green_2bandit_a2.png","70","","70","test","1","","","square","circle","11","11","11","1","1","","","","","","","","","",""
"null","","370040","SARL_v6j50z1e9w","msl000125","freq_resp","","","img/green_2bandit_a.png","70","img/green_2bandit_a.png","70","test","","","","","","","","","1","","","","","","","","","","",""
"null","","370197","SARL_v6j50z1e9w","msl000125","fixation","","","img/fixation.png","null","","","test","","","","","","","","","","","","","","","","","","","",""
"316","","370518","SARL_v6j50z1e9w","msl000125","freq","","","img/green_2bandit_a2.png","70","","70","test","1","","","square","circle","12","12","12","1","1","","","","","","","","","",""
"null","","371008","SARL_v6j50z1e9w","msl000125","freq_resp","","","img/green_2bandit_a.png","70","img/green_2bandit_a.png","70","test","","","","","","","","","1","","","","","","","","","","",""
"null","","371163","SARL_v6j50z1e9w","msl000125","fixation","","","img/fixation.png","null","","","test","","","","","","","","","","","","","","","","","","","",""
"532","","371699","SARL_v6j50z1e9w","msl000125","infreq","","","img/orange_2bandit_a2.png","68","","68","test","1","","","square","circle","13","13","13","1","1","","","","","","","","","",""
"null","","371973","SARL_v6j50z1e9w","msl000125","infreq_resp","","","img/orange_2bandit_a.png","68","img/orange_2bandit_a.png","68","test","","","","","","","","","1","","","","","","","","","","",""
"null","","372129","SARL_v6j50z1e9w","msl000125","fixation","","","img/fixation.png","null","","","test","","","","","","","","","","","","","","","","","","","",""
"483","","372618","SARL_v6j50z1e9w","msl000125","freq","","","img/green_2bandit_a2.png","70","","70","test","1","","","square","circle","14","14","14","1","1","","","","","","","","","",""
"null","","372941","SARL_v6j50z1e9w","msl000125","freq_resp","","","img/green_2bandit_a.png","70","img/green_2bandit_a.png","70","test","","","","","","","","","1","","","","","","","","","","",""
"null","","373098","SARL_v6j50z1e9w","msl000125","fixation","","","img/fixation.png","null","","","test","","","","","","","","","","","","","","","","","","","",""
"453","","373557","SARL_v6j50z1e9w","msl000125","freq","","","img/green_2bandit_a2.png","70","","70","test","1","","","square","circle","15","15","15","1","1","","","","","","","","","",""
"null","","373908","SARL_v6j50z1e9w","msl000125","freq_resp","","","img/green_2bandit_a.png","70","img/green_2bandit_a.png","70","test","","","","","","","","","1","","","","","","","","","","",""
"null","","374063","SARL_v6j50z1e9w","msl000125","fixation","","","img/fixation.png","null","","","test","","","","","","","","","","","","","","","","","","","",""
"416","","374486","SARL_v6j50z1e9w","msl000125","freq","","","img/green_2bandit_a2.png","70","","70","test","1","","","square","circle","16","16","16","1","1","","","","","","","","","",""
"null","","374875","SARL_v6j50z1e9w","msl000125","freq_resp","","","img/green_2bandit_a.png","70","img/green_2bandit_a.png","70","test","","","","","","","","","1","","","","","","","","","","",""
"null","","375030","SARL_v6j50z1e9w","msl000125","fixation","","","img/fixation.png","null","","","test","","","","","","","","","","","","","","","","","","","",""
"402","","375437","SARL_v6j50z1e9w","msl000125","freq","","","img/green_2bandit_a2.png","70","","70","test","1","","","square","circle","17","17","17","1","1","","","","","","","","","",""
"null","","375840","SARL_v6j50z1e9w","msl000125","freq_resp","","","img/green_2bandit_a.png","70","img/green_2bandit_a.png","70","test","","","","","","","","","1","","","","","","","","","","",""
"null","","375999","SARL_v6j50z1e9w","msl000125","fixation","","","img/fixation.png","null","","","test","","","","","","","","","","","","","","","","","","","",""
"300","","376303","SARL_v6j50z1e9w","msl000125","freq","","","img/green_2bandit_a2.png","70","","70","test","1","","","square","circle","18","18","18","1","1","","","","","","","","","",""
"null","","376810","SARL_v6j50z1e9w","msl000125","freq_resp","","","img/green_2bandit_a.png","70","img/green_2bandit_a.png","70","test","","","","","","","","","1","","","","","","","","","","",""
"null","","376966","SARL_v6j50z1e9w","msl000125","fixation","","","img/fixation.png","null","","","test","","","","","","","","","","","","","","","","","","","",""
"281","","377253","SARL_v6j50z1e9w","msl000125","freq","","","img/green_2bandit_a2.png","70","","70","test","1","","","square","circle","19","19","19","1","1","","","","","","","","","",""
"null","","377777","SARL_v6j50z1e9w","msl000125","freq_resp","","","img/green_2bandit_a.png","70","img/green_2bandit_a.png","70","test","","","","","","","","","1","","","","","","","","","","",""
"null","","377934","SARL_v6j50z1e9w","msl000125","fixation","","","img/fixation.png","null","","","test","","","","","","","","","","","","","","","","","","","",""
"277","","378215","SARL_v6j50z1e9w","msl000125","freq","","","img/green_2bandit_a2.png","70","","70","test","1","","","square","circle","20","20","20","1","1","","","","","","","","","",""
"null","","378743","SARL_v6j50z1e9w","msl000125","freq_resp","","","img/green_2bandit_a.png","70","img/green_2bandit_a.png","70","test","","","","","","","","","1","","","","","","","","","","",""
"null","","378899","SARL_v6j50z1e9w","msl000125","fixation","","","img/fixation.png","null","","","test","","","","","","","","","","","","","","","","","","","",""
"319","","379223","SARL_v6j50z1e9w","msl000125","freq","","","img/green_2bandit_a2.png","70","","70","test","1","","","square","circle","21","21","21","1","1","","","","","","","","","",""
"null","","379710","SARL_v6j50z1e9w","msl000125","freq_resp","","","img/green_2bandit_a.png","70","img/green_2bandit_a.png","70","test","","","","","","","","","1","","","","","","","","","","",""
"null","","379865","SARL_v6j50z1e9w","msl000125","fixation","","","img/fixation.png","null","","","test","","","","","","","","","","","","","","","","","","","",""
"292","","380164","SARL_v6j50z1e9w","msl000125","freq","","","img/green_2bandit_a2.png","70","","70","test","1","","","square","circle","22","22","22","1","1","","","","","","","","","",""
"null","","380677","SARL_v6j50z1e9w","msl000125","freq_resp","","","img/green_2bandit_a.png","70","img/green_2bandit_a.png","70","test","","","","","","","","","1","","","","","","","","","","",""
"null","","380832","SARL_v6j50z1e9w","msl000125","fixation","","","img/fixation.png","null","","","test","","","","","","","","","","","","","","","","","","","",""
"294","","381133","SARL_v6j50z1e9w","msl000125","freq","","","img/green_2bandit_a2.png","70","","70","test","1","","","square","circle","23","23","23","1","1","","","","","","","","","",""
"null","","381644","SARL_v6j50z1e9w","msl000125","freq_resp","","","img/green_2bandit_a.png","70","img/green_2bandit_a.png","70","test","","","","","","","","","1","","","","","","","","","","",""
"null","","381799","SARL_v6j50z1e9w","msl000125","fixation","","","img/fixation.png","null","","","test","","","","","","","","","","","","","","","","","","","",""
"1005","","382810","SARL_v6j50z1e9w","msl000125","rl","","","img/black_2bandit_a2.png","75","","0","test","","","1","square","circle","24","","0","1","","75","0.8","0.2","0.4643449104744939","0.2","0.8","0.8","circle","1","0"
"null","","383566","SARL_v6j50z1e9w","msl000125","feedback","","","img/yay_R_a.png","null","","na","test","","","","","","","","","1","","75","0.8","0.2","","","","0.8","","1",""
"744","","384316","SARL_v6j50z1e9w","msl000125","freq","","","img/green_2bandit_a2.png","70","","70","test","1","","","square","circle","25","24","1","2","1","","","","","","","","","",""
"null","","384378","SARL_v6j50z1e9w","msl000125","freq_resp","","","img/green_2bandit_a.png","70","img/green_2bandit_a.png","70","test","","","","","","","","","2","","","","","","","","","","",""
"null","","384533","SARL_v6j50z1e9w","msl000125","fixation","","","img/fixation.png","null","","","test","","","","","","","","","","","","","","","","","","","",""
"485","","385023","SARL_v6j50z1e9w","msl000125","freq","","","img/green_2bandit_a2.png","70","","70","test","1","","","square","circle","26","25","2","2","1","","","","","","","","","",""
"null","","385343","SARL_v6j50z1e9w","msl000125","freq_resp","","","img/green_2bandit_a.png","70","img/green_2bandit_a.png","70","test","","","","","","","","","2","","","","","","","","","","",""
"null","","385498","SARL_v6j50z1e9w","msl000125","fixation","","","img/fixation.png","null","","","test","","","","","","","","","","","","","","","","","","","",""
"416","","385920","SARL_v6j50z1e9w","msl000125","freq","","","img/green_2bandit_a2.png","70","","70","test","1","","","square","circle","27","26","3","2","1","","","","","","","","","",""
"null","","386308","SARL_v6j50z1e9w","msl000125","freq_resp","","","img/green_2bandit_a.png","70","img/green_2bandit_a.png","70","test","","","","","","","","","2","","","","","","","","","","",""
"null","","386463","SARL_v6j50z1e9w","msl000125","fixation","","","img/fixation.png","null","","","test","","","","","","","","","","","","","","","","","","","",""
"278","","386745","SARL_v6j50z1e9w","msl000125","freq","","","img/green_2bandit_a2.png","70","","70","test","1","","","square","circle","28","27","4","2","1","","","","","","","","","",""
"null","","387274","SARL_v6j50z1e9w","msl000125","freq_resp","","","img/green_2bandit_a.png","70","img/green_2bandit_a.png","70","test","","","","","","","","","2","","","","","","","","","","",""
"null","","387429","SARL_v6j50z1e9w","msl000125","fixation","","","img/fixation.png","null","","","test","","","","","","","","","","","","","","","","","","","",""
"642","","388076","SARL_v6j50z1e9w","msl000125","infreq","","","img/orange_2bandit_a2.png","68","","68","test","1","","","square","circle","29","28","5","2","1","","","","","","","","","",""
"null","","388239","SARL_v6j50z1e9w","msl000125","infreq_resp","","","img/orange_2bandit_a.png","68","img/orange_2bandit_a.png","68","test","","","","","","","","","2","","","","","","","","","","",""
"null","","388395","SARL_v6j50z1e9w","msl000125","fixation","","","img/fixation.png","null","","","test","","","","","","","","","","","","","","","","","","","",""
"445","","388843","SARL_v6j50z1e9w","msl000125","freq","","","img/green_2bandit_a2.png","70","","70","test","1","","","square","circle","30","29","6","2","1","","","","","","","","","",""
"null","","389204","SARL_v6j50z1e9w","msl000125","freq_resp","","","img/green_2bandit_a.png","70","img/green_2bandit_a.png","70","test","","","","","","","","","2","","","","","","","","","","",""
"null","","389359","SARL_v6j50z1e9w","msl000125","fixation","","","img/fixation.png","null","","","test","","","","","","","","","","","","","","","","","","","",""
"312","","389677","SARL_v6j50z1e9w","msl000125","freq","","","img/green_2bandit_a2.png","70","","70","test","1","","","square","circle","31","30","7","2","1","","","","","","","","","",""
"null","","390170","SARL_v6j50z1e9w","msl000125","freq_resp","","","img/green_2bandit_a.png","70","img/green_2bandit_a.png","70","test","","","","","","","","","2","","","","","","","","","","",""
"null","","390326","SARL_v6j50z1e9w","msl000125","fixation","","","img/fixation.png","null","","","test","","","","","","","","","","","","","","","","","","","",""
"285","","390614","SARL_v6j50z1e9w","msl000125","freq","","","img/green_2bandit_a2.png","70","","70","test","1","","","square","circle","32","31","8","2","1","","","","","","","","","",""
"null","","391135","SARL_v6j50z1e9w","msl000125","freq_resp","","","img/green_2bandit_a.png","70","img/green_2bandit_a.png","70","test","","","","","","","","","2","","","","","","","","","","",""
"null","","391290","SARL_v6j50z1e9w","msl000125","fixation","","","img/fixation.png","null","","","test","","","","","","","","","","","","","","","","","","","",""
"256","","391551","SARL_v6j50z1e9w","msl000125","freq","","","img/green_2bandit_a2.png","70","","70","test","1","","","square","circle","33","32","9","2","1","","","","","","","","","",""
"null","","392102","SARL_v6j50z1e9w","msl000125","freq_resp","","","img/green_2bandit_a.png","70","img/green_2bandit_a.png","70","test","","","","","","","","","2","","","","","","","","","","",""
"null","","392258","SARL_v6j50z1e9w","msl000125","fixation","","","img/fixation.png","null","","","test","","","","","","","","","","","","","","","","","","","",""
"201","","392463","SARL_v6j50z1e9w","msl000125","freq","","","img/green_2bandit_a2.png","70","","70","test","1","","","square","circle","34","33","10","2","1","","","","","","","","","",""
"null","","393068","SARL_v6j50z1e9w","msl000125","freq_resp","","","img/green_2bandit_a.png","70","img/green_2bandit_a.png","70","test","","","","","","","","","2","","","","","","","","","","",""
"null","","393223","SARL_v6j50z1e9w","msl000125","fixation","","","img/fixation.png","null","","","test","","","","","","","","","","","","","","","","","","","",""
"245","","393471","SARL_v6j50z1e9w","msl000125","freq","","","img/green_2bandit_a2.png","70","","70","test","1","","","square","circle","35","34","11","2","1","","","","","","","","","",""
"null","","394032","SARL_v6j50z1e9w","msl000125","freq_resp","","","img/green_2bandit_a.png","70","img/green_2bandit_a.png","70","test","","","","","","","","","2","","","","","","","","","","",""
"null","","394188","SARL_v6j50z1e9w","msl000125","fixation","","","img/fixation.png","null","","","test","","","","","","","","","","","","","","","","","","","",""
"279","","394471","SARL_v6j50z1e9w","msl000125","freq","","","img/green_2bandit_a2.png","70","","70","test","1","","","square","circle","36","35","12","2","1","","","","","","","","","",""
"null","","394998","SARL_v6j50z1e9w","msl000125","freq_resp","","","img/green_2bandit_a.png","70","img/green_2bandit_a.png","70","test","","","","","","","","","2","","","","","","","","","","",""
"null","","395153","SARL_v6j50z1e9w","msl000125","fixation","","","img/fixation.png","null","","","test","","","","","","","","","","","","","","","","","","","",""
"292","","395450","SARL_v6j50z1e9w","msl000125","freq","","","img/green_2bandit_a2.png","70","","70","test","1","","","square","circle","37","36","13","2","1","","","","","","","","","",""
"null","","395963","SARL_v6j50z1e9w","msl000125","freq_resp","","","img/green_2bandit_a.png","70","img/green_2bandit_a.png","70","test","","","","","","","","","2","","","","","","","","","","",""
"null","","396118","SARL_v6j50z1e9w","msl000125","fixation","","","img/fixation.png","null","","","test","","","","","","","","","","","","","","","","","","","",""
"517","","396640","SARL_v6j50z1e9w","msl000125","infreq","","","img/orange_2bandit_a2.png","68","","68","test","1","","","square","circle","38","37","14","2","1","","","","","","","","","",""
"null","","396929","SARL_v6j50z1e9w","msl000125","infreq_resp","","","img/orange_2bandit_a.png","68","img/orange_2bandit_a.png","68","test","","","","","","","","","2","","","","","","","","","","",""
"null","","397085","SARL_v6j50z1e9w","msl000125","fixation","","","img/fixation.png","null","","","test","","","","","","","","","","","","","","","","","","","",""
"488","","397578","SARL_v6j50z1e9w","msl000125","freq","","","img/green_2bandit_a2.png","70","","70","test","1","","","square","circle","39","38","15","2","1","","","","","","","","","",""
"null","","397895","SARL_v6j50z1e9w","msl000125","freq_resp","","","img/green_2bandit_a.png","70","img/green_2bandit_a.png","70","test","","","","","","","","","2","","","","","","","","","","",""
"null","","398051","SARL_v6j50z1e9w","msl000125","fixation","","","img/fixation.png","null","","","test","","","","","","","","","","","","","","","","","","","",""
"317","","398374","SARL_v6j50z1e9w","msl000125","freq","","","img/green_2bandit_a2.png","70","","70","test","1","","","square","circle","40","39","16","2","1","","","","","","","","","",""
"null","","398862","SARL_v6j50z1e9w","msl000125","freq_resp","","","img/green_2bandit_a.png","70","img/green_2bandit_a.png","70","test","","","","","","","","","2","","","","","","","","","","",""
"null","","399018","SARL_v6j50z1e9w","msl000125","fixation","","","img/fixation.png","null","","","test","","","","","","","","","","","","","","","","","","","",""
"287","","399310","SARL_v6j50z1e9w","msl000125","freq","","","img/green_2bandit_a2.png","70","","70","test","1","","","square","circle","41","40","17","2","1","","","","","","","","","",""
"null","","399828","SARL_v6j50z1e9w","msl000125","freq_resp","","","img/green_2bandit_a.png","70","img/green_2bandit_a.png","70","test","","","","","","","","","2","","","","","","","","","","",""
"null","","399984","SARL_v6j50z1e9w","msl000125","fixation","","","img/fixation.png","null","","","test","","","","","","","","","","","","","","","","","","","",""
"330","","400319","SARL_v6j50z1e9w","msl000125","freq","","","img/green_2bandit_a2.png","70","","70","test","1","","","square","circle","42","41","18","2","1","","","","","","","","","",""
"null","","400795","SARL_v6j50z1e9w","msl000125","freq_resp","","","img/green_2bandit_a.png","70","img/green_2bandit_a.png","70","test","","","","","","","","","2","","","","","","","","","","",""
"null","","400950","SARL_v6j50z1e9w","msl000125","fixation","","","img/fixation.png","null","","","test","","","","","","","","","","","","","","","","","","","",""
"277","","401233","SARL_v6j50z1e9w","msl000125","infreq","","","img/orange_2bandit_a2.png","70","","68","test","0","","","square","circle","43","42","19","2","0.9761904761904762","","","","","","","","","",""
"null","","401762","SARL_v6j50z1e9w","msl000125","infreq_resp","","","img/orange_2bandit_a.png","70","img/orange_2bandit_a.png","68","test","","","","","","","","","2","","","","","","","","","","",""
"null","","401916","SARL_v6j50z1e9w","msl000125","fixation","","","img/fixation.png","null","","","test","","","","","","","","","","","","","","","","","","","",""
"683","","402604","SARL_v6j50z1e9w","msl000125","freq","","","img/green_2bandit_a2.png","70","","70","test","1","","","square","circle","44","43","20","2","0.9767441860465116","","","","","","","","","",""
"null","","402727","SARL_v6j50z1e9w","msl000125","freq_resp","","","img/green_2bandit_a.png","70","img/green_2bandit_a.png","70","test","","","","","","","","","2","","","","","","","","","","",""
"null","","402882","SARL_v6j50z1e9w","msl000125","fixation","","","img/fixation.png","null","","","test","","","","","","","","","","","","","","","","","","","",""
"437","","403323","SARL_v6j50z1e9w","msl000125","freq","","","img/green_2bandit_a2.png","70","","70","test","1","","","square","circle","45","44","21","2","0.9772727272727273","","","","","","","","","",""
"null","","403691","SARL_v6j50z1e9w","msl000125","freq_resp","","","img/green_2bandit_a.png","70","img/green_2bandit_a.png","70","test","","","","","","","","","2","","","","","","","","","","",""
"null","","403847","SARL_v6j50z1e9w","msl000125","fixation","","","img/fixation.png","null","","","test","","","","","","","","","","","","","","","","","","","",""
"352","","404205","SARL_v6j50z1e9w","msl000125","freq","","","img/green_2bandit_a2.png","70","","70","test","1","","","square","circle","46","45","22","2","0.9777777777777777","","","","","","","","","",""
"null","","404658","SARL_v6j50z1e9w","msl000125","freq_resp","","","img/green_2bandit_a.png","70","img/green_2bandit_a.png","70","test","","","","","","","","","2","","","","","","","","","","",""
"null","","404814","SARL_v6j50z1e9w","msl000125","fixation","","","img/fixation.png","null","","","test","","","","","","","","","","","","","","","","","","","",""
"842","","405660","SARL_v6j50z1e9w","msl000125","rl","","","img/black_2bandit_a2.png","75","","0","test","","","1","square","circle","47","","0","2","","75","0.8","0.2","0.3011183419407786","0.2","0.8","0.8","circle","2","0"
"null","","406416","SARL_v6j50z1e9w","msl000125","feedback","","","img/yay_R_a.png","null","","na","test","","","","","","","","","2","","75","0.8","0.2","","","","0.8","","2",""
"686","","407107","SARL_v6j50z1e9w","msl000125","freq","","","img/green_2bandit_a2.png","70","","70","test","1","","","square","circle","48","46","1","3","0.9782608695652174","","","","","","","","","",""
"null","","407227","SARL_v6j50z1e9w","msl000125","freq_resp","","","img/green_2bandit_a.png","70","img/green_2bandit_a.png","70","test","","","","","","","","","3","","","","","","","","","","",""
"null","","407382","SARL_v6j50z1e9w","msl000125","fixation","","","img/fixation.png","null","","","test","","","","","","","","","","","","","","","","","","","",""
"331","","407719","SARL_v6j50z1e9w","msl000125","freq","","","img/green_2bandit_a2.png","70","","70","test","1","","","square","circle","49","47","2","3","0.9787234042553191","","","","","","","","","",""
"null","","408193","SARL_v6j50z1e9w","msl000125","freq_resp","","","img/green_2bandit_a.png","70","img/green_2bandit_a.png","70","test","","","","","","","","","3","","","","","","","","","","",""
"null","","408349","SARL_v6j50z1e9w","msl000125","fixation","","","img/fixation.png","null","","","test","","","","","","","","","","","","","","","","","","","",""
"353","","408708","SARL_v6j50z1e9w","msl000125","freq","","","img/green_2bandit_a2.png","70","","70","test","1","","","square","circle","50","48","3","3","0.9791666666666666","","","","","","","","","",""
"null","","409160","SARL_v6j50z1e9w","msl000125","freq_resp","","","img/green_2bandit_a.png","70","img/green_2bandit_a.png","70","test","","","","","","","","","3","","","","","","","","","","",""
"null","","409315","SARL_v6j50z1e9w","msl000125","fixation","","","img/fixation.png","null","","","test","","","","","","","","","","","","","","","","","","","",""
"382","","409703","SARL_v6j50z1e9w","msl000125","freq","","","img/green_2bandit_a2.png","70","","70","test","1","","","square","circle","51","49","4","3","0.9795918367346939","","","","","","","","","",""
"null","","410127","SARL_v6j50z1e9w","msl000125","freq_resp","","","img/green_2bandit_a.png","70","img/green_2bandit_a.png","70","test","","","","","","","","","3","","","","","","","","","","",""
"null","","410284","SARL_v6j50z1e9w","msl000125","fixation","","","img/fixation.png","null","","","test","","","","","","","","","","","","","","","","","","","",""
"331","","410621","SARL_v6j50z1e9w","msl000125","freq","","","img/green_2bandit_a2.png","70","","70","test","1","","","square","circle","52","50","5","3","0.98","","","","","","","","","",""
"null","","411096","SARL_v6j50z1e9w","msl000125","freq_resp","","","img/green_2bandit_a.png","70","img/green_2bandit_a.png","70","test","","","","","","","","","3","","","","","","","","","","",""
"null","","411251","SARL_v6j50z1e9w","msl000125","fixation","","","img/fixation.png","null","","","test","","","","","","","","","","","","","","","","","","","",""
"315","","411571","SARL_v6j50z1e9w","msl000125","freq","","","img/green_2bandit_a2.png","70","","70","test","1","","","square","circle","53","51","6","3","0.9803921568627451","","","","","","","","","",""
"null","","412061","SARL_v6j50z1e9w","msl000125","freq_resp","","","img/green_2bandit_a.png","70","img/green_2bandit_a.png","70","test","","","","","","","","","3","","","","","","","","","","",""
"null","","412216","SARL_v6j50z1e9w","msl000125","fixation","","","img/fixation.png","null","","","test","","","","","","","","","","","","","","","","","","","",""
"554","","412775","SARL_v6j50z1e9w","msl000125","infreq","","","img/orange_2bandit_a2.png","68","","68","test","1","","","square","circle","54","52","7","3","0.9807692307692307","","","","","","","","","",""
"null","","413027","SARL_v6j50z1e9w","msl000125","infreq_resp","","","img/orange_2bandit_a.png","68","img/orange_2bandit_a.png","68","test","","","","","","","","","3","","","","","","","","","","",""
"null","","413182","SARL_v6j50z1e9w","msl000125","fixation","","","img/fixation.png","null","","","test","","","","","","","","","","","","","","","","","","","",""
"502","","413689","SARL_v6j50z1e9w","msl000125","freq","","","img/green_2bandit_a2.png","70","","70","test","1","","","square","circle","55","53","8","3","0.9811320754716981","","","","","","","","","",""
"null","","413993","SARL_v6j50z1e9w","msl000125","freq_resp","","","img/green_2bandit_a.png","70","img/green_2bandit_a.png","70","test","","","","","","","","","3","","","","","","","","","","",""
"null","","414148","SARL_v6j50z1e9w","msl000125","fixation","","","img/fixation.png","null","","","test","","","","","","","","","","","","","","","","","","","",""
"581","","414734","SARL_v6j50z1e9w","msl000125","freq","","","img/green_2bandit_a2.png","70","","70","test","1","","","square","circle","56","54","9","3","0.9814814814814815","","","","","","","","","",""
"null","","414959","SARL_v6j50z1e9w","msl000125","freq_resp","","","img/green_2bandit_a.png","70","img/green_2bandit_a.png","70","test","","","","","","","","","3","","","","","","","","","","",""
"null","","415115","SARL_v6j50z1e9w","msl000125","fixation","","","img/fixation.png","null","","","test","","","","","","","","","","","","","","","","","","","",""
"297","","415416","SARL_v6j50z1e9w","msl000125","freq","","","img/green_2bandit_a2.png","70","","70","test","1","","","square","circle","57","55","10","3","0.9818181818181818","","","","","","","","","",""
"null","","415925","SARL_v6j50z1e9w","msl000125","freq_resp","","","img/green_2bandit_a.png","70","img/green_2bandit_a.png","70","test","","","","","","","","","3","","","","","","","","","","",""
"null","","416080","SARL_v6j50z1e9w","msl000125","fixation","","","img/fixation.png","null","","","test","","","","","","","","","","","","","","","","","","","",""
"397","","416481","SARL_v6j50z1e9w","msl000125","freq","","","img/green_2bandit_a2.png","70","","70","test","1","","","square","circle","58","56","11","3","0.9821428571428571","","","","","","","","","",""
"null","","416889","SARL_v6j50z1e9w","msl000125","freq_resp","","","img/green_2bandit_a.png","70","img/green_2bandit_a.png","70","test","","","","","","","","","3","","","","","","","","","","",""
"null","","417045","SARL_v6j50z1e9w","msl000125","fixation","","","img/fixation.png","null","","","test","","","","","","","","","","","","","","","","","","","",""
"328","","417378","SARL_v6j50z1e9w","msl000125","freq","","","img/green_2bandit_a2.png","70","","70","test","1","","","square","circle","59","57","12","3","0.9824561403508771","","","","","","","","","",""
"null","","417856","SARL_v6j50z1e9w","msl000125","freq_resp","","","img/green_2bandit_a.png","70","img/green_2bandit_a.png","70","test","","","","","","","","","3","","","","","","","","","","",""
"null","","418012","SARL_v6j50z1e9w","msl000125","fixation","","","img/fixation.png","null","","","test","","","","","","","","","","","","","","","","","","","",""
"300","","418317","SARL_v6j50z1e9w","msl000125","freq","","","img/green_2bandit_a2.png","70","","70","test","1","","","square","circle","60","58","13","3","0.9827586206896551","","","","","","","","","",""
"null","","418823","SARL_v6j50z1e9w","msl000125","freq_resp","","","img/green_2bandit_a.png","70","img/green_2bandit_a.png","70","test","","","","","","","","","3","","","","","","","","","","",""
"null","","418979","SARL_v6j50z1e9w","msl000125","fixation","","","img/fixation.png","null","","","test","","","","","","","","","","","","","","","","","","","",""
"334","","419317","SARL_v6j50z1e9w","msl000125","freq","","","img/green_2bandit_a2.png","70","","70","test","1","","","square","circle","61","59","14","3","0.9830508474576272","","","","","","","","","",""
"null","","419789","SARL_v6j50z1e9w","msl000125","freq_resp","","","img/green_2bandit_a.png","70","img/green_2bandit_a.png","70","test","","","","","","","","","3","","","","","","","","","","",""
"null","","419944","SARL_v6j50z1e9w","msl000125","fixation","","","img/fixation.png","null","","","test","","","","","","","","","","","","","","","","","","","",""
"527","","420475","SARL_v6j50z1e9w","msl000125","infreq","","","img/orange_2bandit_a2.png","68","","68","test","1","","","square","circle","62","60","15","3","0.9833333333333333","","","","","","","","","",""
"null","","420753","SARL_v6j50z1e9w","msl000125","infreq_resp","","","img/orange_2bandit_a.png","68","img/orange_2bandit_a.png","68","test","","","","","","","","","3","","","","","","","","","","",""
"null","","420909","SARL_v6j50z1e9w","msl000125","fixation","","","img/fixation.png","null","","","test","","","","","","","","","","","","","","","","","","","",""
"415","","421328","SARL_v6j50z1e9w","msl000125","freq","","","img/green_2bandit_a2.png","70","","70","test","1","","","square","circle","63","61","16","3","0.9836065573770492","","","","","","","","","",""
"null","","421719","SARL_v6j50z1e9w","msl000125","freq_resp","","","img/green_2bandit_a.png","70","img/green_2bandit_a.png","70","test","","","","","","","","","3","","","","","","","","","","",""
"null","","421875","SARL_v6j50z1e9w","msl000125","fixation","","","img/fixation.png","null","","","test","","","","","","","","","","","","","","","","","","","",""
"360","","422240","SARL_v6j50z1e9w","msl000125","freq","","","img/green_2bandit_a2.png","70","","70","test","1","","","square","circle","64","62","17","3","0.9838709677419355","","","","","","","","","",""
"null","","422686","SARL_v6j50z1e9w","msl000125","freq_resp","","","img/green_2bandit_a.png","70","img/green_2bandit_a.png","70","test","","","","","","","","","3","","","","","","","","","","",""
"null","","422840","SARL_v6j50z1e9w","msl000125","fixation","","","img/fixation.png","null","","","test","","","","","","","","","","","","","","","","","","","",""
"270","","423116","SARL_v6j50z1e9w","msl000125","freq","","","img/green_2bandit_a2.png","70","","70","test","1","","","square","circle","65","63","18","3","0.9841269841269841","","","","","","","","","",""
"null","","423650","SARL_v6j50z1e9w","msl000125","freq_resp","","","img/green_2bandit_a.png","70","img/green_2bandit_a.png","70","test","","","","","","","","","3","","","","","","","","","","",""
"null","","423805","SARL_v6j50z1e9w","msl000125","fixation","","","img/fixation.png","null","","","test","","","","","","","","","","","","","","","","","","","",""
"275","","424085","SARL_v6j50z1e9w","msl000125","freq","","","img/green_2bandit_a2.png","70","","70","test","1","","","square","circle","66","64","19","3","0.984375","","","","","","","","","",""
"null","","424615","SARL_v6j50z1e9w","msl000125","freq_resp","","","img/green_2bandit_a.png","70","img/green_2bandit_a.png","70","test","","","","","","","","","3","","","","","","","","","","",""
"null","","424771","SARL_v6j50z1e9w","msl000125","fixation","","","img/fixation.png","null","","","test","","","","","","","","","","","","","","","","","","","",""
"279","","425056","SARL_v6j50z1e9w","msl000125","freq","","","img/green_2bandit_a2.png","70","","70","test","1","","","square","circle","67","65","20","3","0.9846153846153847","","","","","","","","","",""
"null","","425582","SARL_v6j50z1e9w","msl000125","freq_resp","","","img/green_2bandit_a.png","70","img/green_2bandit_a.png","70","test","","","","","","","","","3","","","","","","","","","","",""
"null","","425737","SARL_v6j50z1e9w","msl000125","fixation","","","img/fixation.png","null","","","test","","","","","","","","","","","","","","","","","","","",""
"999","","426742","SARL_v6j50z1e9w","msl000125","rl","","","img/black_2bandit_a2.png","75","","0","test","","","1","square","circle","68","","0","3","","75","0.8","0.2","0.28369919062719384","0.2","0.8","0.8","circle","3","0"
"null","","427498","SARL_v6j50z1e9w","msl000125","feedback","","","img/yay_R_a.png","null","","na","test","","","","","","","","","3","","75","0.8","0.2","","","","0.8","","3",""
"605","","428107","SARL_v6j50z1e9w","msl000125","freq","","","img/green_2bandit_a2.png","70","","70","test","1","","","square","circle","69","66","1","4","0.9848484848484849","","","","","","","","","",""
"null","","428307","SARL_v6j50z1e9w","msl000125","freq_resp","","","img/green_2bandit_a.png","70","img/green_2bandit_a.png","70","test","","","","","","","","","4","","","","","","","","","","",""
"null","","428463","SARL_v6j50z1e9w","msl000125","fixation","","","img/fixation.png","null","","","test","","","","","","","","","","","","","","","","","","","",""
"332","","428799","SARL_v6j50z1e9w","msl000125","freq","","","img/green_2bandit_a2.png","70","","70","test","1","","","square","circle","70","67","2","4","0.9850746268656716","","","","","","","","","",""
"null","","429273","SARL_v6j50z1e9w","msl000125","freq_resp","","","img/green_2bandit_a.png","70","img/green_2bandit_a.png","70","test","","","","","","","","","4","","","","","","","","","","",""
"null","","429428","SARL_v6j50z1e9w","msl000125","fixation","","","img/fixation.png","null","","","test","","","","","","","","","","","","","","","","","","","",""
"512","","429946","SARL_v6j50z1e9w","msl000125","infreq","","","img/orange_2bandit_a2.png","68","","68","test","1","","","square","circle","71","68","3","4","0.9852941176470589","","","","","","","","","",""
"null","","430238","SARL_v6j50z1e9w","msl000125","infreq_resp","","","img/orange_2bandit_a.png","68","img/orange_2bandit_a.png","68","test","","","","","","","","","4","","","","","","","","","","",""
"null","","430394","SARL_v6j50z1e9w","msl000125","fixation","","","img/fixation.png","null","","","test","","","","","","","","","","","","","","","","","","","",""
"489","","430887","SARL_v6j50z1e9w","msl000125","freq","","","img/green_2bandit_a2.png","70","","70","test","1","","","square","circle","72","69","4","4","0.9855072463768116","","","","","","","","","",""
"null","","431204","SARL_v6j50z1e9w","msl000125","freq_resp","","","img/green_2bandit_a.png","70","img/green_2bandit_a.png","70","test","","","","","","","","","4","","","","","","","","","","",""
"null","","431360","SARL_v6j50z1e9w","msl000125","fixation","","","img/fixation.png","null","","","test","","","","","","","","","","","","","","","","","","","",""
"351","","431714","SARL_v6j50z1e9w","msl000125","freq","","","img/green_2bandit_a2.png","70","","70","test","1","","","square","circle","73","70","5","4","0.9857142857142858","","","","","","","","","",""
"null","","432169","SARL_v6j50z1e9w","msl000125","freq_resp","","","img/green_2bandit_a.png","70","img/green_2bandit_a.png","70","test","","","","","","","","","4","","","","","","","","","","",""
"null","","432325","SARL_v6j50z1e9w","msl000125","fixation","","","img/fixation.png","null","","","test","","","","","","","","","","","","","","","","","","","",""
"454","","432784","SARL_v6j50z1e9w","msl000125","infreq","","","img/orange_2bandit_a2.png","68","","68","test","1","","","square","circle","74","71","6","4","0.9859154929577465","","","","","","","","","",""
"null","","433136","SARL_v6j50z1e9w","msl000125","infreq_resp","","","img/orange_2bandit_a.png","68","img/orange_2bandit_a.png","68","test","","","","","","","","","4","","","","","","","","","","",""
"null","","433292","SARL_v6j50z1e9w","msl000125","fixation","","","img/fixation.png","null","","","test","","","","","","","","","","","","","","","","","","","",""
"362","","433660","SARL_v6j50z1e9w","msl000125","freq","","","img/green_2bandit_a2.png","70","","70","test","1","","","square","circle","75","72","7","4","0.9861111111111112","","","","","","","","","",""
"null","","434102","SARL_v6j50z1e9w","msl000125","freq_resp","","","img/green_2bandit_a.png","70","img/green_2bandit_a.png","70","test","","","","","","","","","4","","","","","","","","","","",""
"null","","434258","SARL_v6j50z1e9w","msl000125","fixation","","","img/fixation.png","null","","","test","","","","","","","","","","","","","","","","","","","",""
"289","","434553","SARL_v6j50z1e9w","msl000125","freq","","","img/green_2bandit_a2.png","70","","70","test","1","","","square","circle","76","73","8","4","0.9863013698630136","","","","","","","","","",""
"null","","435069","SARL_v6j50z1e9w","msl000125","freq_resp","","","img/green_2bandit_a.png","70","img/green_2bandit_a.png","70","test","","","","","","","","","4","","","","","","","","","","",""
"null","","435225","SARL_v6j50z1e9w","msl000125","fixation","","","img/fixation.png","null","","","test","","","","","","","","","","","","","","","","","","","",""
"296","","435525","SARL_v6j50z1e9w","msl000125","freq","","","img/green_2bandit_a2.png","70","","70","test","1","","","square","circle","77","74","9","4","0.9864864864864865","","","","","","","","","",""
"null","","436035","SARL_v6j50z1e9w","msl000125","freq_resp","","","img/green_2bandit_a.png","70","img/green_2bandit_a.png","70","test","","","","","","","","","4","","","","","","","","","","",""
"null","","436190","SARL_v6j50z1e9w","msl000125","fixation","","","img/fixation.png","null","","","test","","","","","","","","","","","","","","","","","","","",""
"299","","436495","SARL_v6j50z1e9w","msl000125","freq","","","img/green_2bandit_a2.png","70","","70","test","1","","","square","circle","78","75","10","4","0.9866666666666667","","","","","","","","","",""
"null","","437002","SARL_v6j50z1e9w","msl000125","freq_resp","","","img/green_2bandit_a.png","70","img/green_2bandit_a.png","70","test","","","","","","","","","4","","","","","","","","","","",""
"null","","437157","SARL_v6j50z1e9w","msl000125","fixation","","","img/fixation.png","null","","","test","","","","","","","","","","","","","","","","","","","",""
"297","","437458","SARL_v6j50z1e9w","msl000125","freq","","","img/green_2bandit_a2.png","70","","70","test","1","","","square","circle","79","76","11","4","0.9868421052631579","","","","","","","","","",""
"null","","437967","SARL_v6j50z1e9w","msl000125","freq_resp","","","img/green_2bandit_a.png","70","img/green_2bandit_a.png","70","test","","","","","","","","","4","","","","","","","","","","",""
"null","","438122","SARL_v6j50z1e9w","msl000125","fixation","","","img/fixation.png","null","","","test","","","","","","","","","","","","","","","","","","","",""
"296","","438422","SARL_v6j50z1e9w","msl000125","freq","","","img/green_2bandit_a2.png","70","","70","test","1","","","square","circle","80","77","12","4","0.987012987012987","","","","","","","","","",""
"null","","438931","SARL_v6j50z1e9w","msl000125","freq_resp","","","img/green_2bandit_a.png","70","img/green_2bandit_a.png","70","test","","","","","","","","","4","","","","","","","","","","",""
"null","","439087","SARL_v6j50z1e9w","msl000125","fixation","","","img/fixation.png","null","","","test","","","","","","","","","","","","","","","","","","","",""
"306","","439398","SARL_v6j50z1e9w","msl000125","freq","","","img/green_2bandit_a2.png","70","","70","test","1","","","square","circle","81","78","13","4","0.9871794871794872","","","","","","","","","",""
"null","","439898","SARL_v6j50z1e9w","msl000125","freq_resp","","","img/green_2bandit_a.png","70","img/green_2bandit_a.png","70","test","","","","","","","","","4","","","","","","","","","","",""
"null","","440053","SARL_v6j50z1e9w","msl000125","fixation","","","img/fixation.png","null","","","test","","","","","","","","","","","","","","","","","","","",""
"277","","440335","SARL_v6j50z1e9w","msl000125","freq","","","img/green_2bandit_a2.png","70","","70","test","1","","","square","circle","82","79","14","4","0.9873417721518988","","","","","","","","","",""
"null","","440863","SARL_v6j50z1e9w","msl000125","freq_resp","","","img/green_2bandit_a.png","70","img/green_2bandit_a.png","70","test","","","","","","","","","4","","","","","","","","","","",""
"null","","441018","SARL_v6j50z1e9w","msl000125","fixation","","","img/fixation.png","null","","","test","","","","","","","","","","","","","","","","","","","",""
"270","","441294","SARL_v6j50z1e9w","msl000125","freq","","","img/green_2bandit_a2.png","70","","70","test","1","","","square","circle","83","80","15","4","0.9875","","","","","","","","","",""
"null","","441830","SARL_v6j50z1e9w","msl000125","freq_resp","","","img/green_2bandit_a.png","70","img/green_2bandit_a.png","70","test","","","","","","","","","4","","","","","","","","","","",""
"null","","441986","SARL_v6j50z1e9w","msl000125","fixation","","","img/fixation.png","null","","","test","","","","","","","","","","","","","","","","","","","",""
"312","","442303","SARL_v6j50z1e9w","msl000125","freq","","","img/green_2bandit_a2.png","70","","70","test","1","","","square","circle","84","81","16","4","0.9876543209876543","","","","","","","","","",""
"null","","442797","SARL_v6j50z1e9w","msl000125","freq_resp","","","img/green_2bandit_a.png","70","img/green_2bandit_a.png","70","test","","","","","","","","","4","","","","","","","","","","",""
"null","","442953","SARL_v6j50z1e9w","msl000125","fixation","","","img/fixation.png","null","","","test","","","","","","","","","","","","","","","","","","","",""
"618","","443576","SARL_v6j50z1e9w","msl000125","infreq","","","img/orange_2bandit_a2.png","68","","68","test","1","","","square","circle","85","82","17","4","0.9878048780487805","","","","","","","","","",""
"null","","443764","SARL_v6j50z1e9w","msl000125","infreq_resp","","","img/orange_2bandit_a.png","68","img/orange_2bandit_a.png","68","test","","","","","","","","","4","","","","","","","","","","",""
"null","","443919","SARL_v6j50z1e9w","msl000125","fixation","","","img/fixation.png","null","","","test","","","","","","","","","","","","","","","","","","","",""
"528","","444452","SARL_v6j50z1e9w","msl000125","freq","","","img/green_2bandit_a2.png","70","","70","test","1","","","square","circle","86","83","18","4","0.9879518072289156","","","","","","","","","",""
"null","","444729","SARL_v6j50z1e9w","msl000125","freq_resp","","","img/green_2bandit_a.png","70","img/green_2bandit_a.png","70","test","","","","","","","","","4","","","","","","","","","","",""
"null","","444884","SARL_v6j50z1e9w","msl000125","fixation","","","img/fixation.png","null","","","test","","","","","","","","","","","","","","","","","","","",""
"547","","445437","SARL_v6j50z1e9w","msl000125","freq","","","img/green_2bandit_a2.png","70","","70","test","1","","","square","circle","87","84","19","4","0.9880952380952381","","","","","","","","","",""
"null","","445695","SARL_v6j50z1e9w","msl000125","freq_resp","","","img/green_2bandit_a.png","70","img/green_2bandit_a.png","70","test","","","","","","","","","4","","","","","","","","","","",""
"null","","445850","SARL_v6j50z1e9w","msl000125","fixation","","","img/fixation.png","null","","","test","","","","","","","","","","","","","","","","","","","",""
"315","","446170","SARL_v6j50z1e9w","msl000125","freq","","","img/green_2bandit_a2.png","70","","70","test","1","","","square","circle","88","85","20","4","0.9882352941176471","","","","","","","","","",""
"null","","446661","SARL_v6j50z1e9w","msl000125","freq_resp","","","img/green_2bandit_a.png","70","img/green_2bandit_a.png","70","test","","","","","","","","","4","","","","","","","","","","",""
"null","","446816","SARL_v6j50z1e9w","msl000125","fixation","","","img/fixation.png","null","","","test","","","","","","","","","","","","","","","","","","","",""
"316","","447138","SARL_v6j50z1e9w","msl000125","freq","","","img/green_2bandit_a2.png","70","","70","test","1","","","square","circle","89","86","21","4","0.9883720930232558","","","","","","","","","",""
"null","","447627","SARL_v6j50z1e9w","msl000125","freq_resp","","","img/green_2bandit_a.png","70","img/green_2bandit_a.png","70","test","","","","","","","","","4","","","","","","","","","","",""
"null","","447783","SARL_v6j50z1e9w","msl000125","fixation","","","img/fixation.png","null","","","test","","","","","","","","","","","","","","","","","","","",""
"1208","","448996","SARL_v6j50z1e9w","msl000125","rl","","","img/black_2bandit_a2.png","75","","0","test","","","1","square","circle","90","","0","4","","75","0.8","0.2","0.6859788906552604","0.2","0.8","0.8","circle","4","0"
"null","","449752","SARL_v6j50z1e9w","msl000125","feedback","","","img/yay_R_a.png","null","","na","test","","","","","","","","","4","","75","0.8","0.2","","","","0.8","","4",""
"628","","450385","SARL_v6j50z1e9w","msl000125","freq","","","img/green_2bandit_a2.png","70","","70","test","1","","","square","circle","91","87","1","5","0.9885057471264368","","","","","","","","","",""
"null","","450562","SARL_v6j50z1e9w","msl000125","freq_resp","","","img/green_2bandit_a.png","70","img/green_2bandit_a.png","70","test","","","","","","","","","5","","","","","","","","","","",""
"null","","450717","SARL_v6j50z1e9w","msl000125","fixation","","","img/fixation.png","null","","","test","","","","","","","","","","","","","","","","","","","",""
"349","","451070","SARL_v6j50z1e9w","msl000125","freq","","","img/green_2bandit_a2.png","70","","70","test","1","","","square","circle","92","88","2","5","0.9886363636363636","","","","","","","","","",""
"null","","451527","SARL_v6j50z1e9w","msl000125","freq_resp","","","img/green_2bandit_a.png","70","img/green_2bandit_a.png","70","test","","","","","","","","","5","","","","","","","","","","",""
"null","","451682","SARL_v6j50z1e9w","msl000125","fixation","","","img/fixation.png","null","","","test","","","","","","","","","","","","","","","","","","","",""
"341","","452028","SARL_v6j50z1e9w","msl000125","freq","","","img/green_2bandit_a2.png","70","","70","test","1","","","square","circle","93","89","3","5","0.9887640449438202","","","","","","","","","",""
"null","","452492","SARL_v6j50z1e9w","msl000125","freq_resp","","","img/green_2bandit_a.png","70","img/green_2bandit_a.png","70","test","","","","","","","","","5","","","","","","","","","","",""
"null","","452647","SARL_v6j50z1e9w","msl000125","fixation","","","img/fixation.png","null","","","test","","","","","","","","","","","","","","","","","","","",""
"524","","453176","SARL_v6j50z1e9w","msl000125","infreq","","","img/orange_2bandit_a2.png","68","","68","test","1","","","square","circle","94","90","4","5","0.9888888888888889","","","","","","","","","",""
"null","","453458","SARL_v6j50z1e9w","msl000125","infreq_resp","","","img/orange_2bandit_a.png","68","img/orange_2bandit_a.png","68","test","","","","","","","","","5","","","","","","","","","","",""
"null","","453614","SARL_v6j50z1e9w","msl000125","fixation","","","img/fixation.png","null","","","test","","","","","","","","","","","","","","","","","","","",""
"479","","454098","SARL_v6j50z1e9w","msl000125","freq","","","img/green_2bandit_a2.png","70","","70","test","1","","","square","circle","95","91","5","5","0.989010989010989","","","","","","","","","",""
"null","","454423","SARL_v6j50z1e9w","msl000125","freq_resp","","","img/green_2bandit_a.png","70","img/green_2bandit_a.png","70","test","","","","","","","","","5","","","","","","","","","","",""
"null","","454579","SARL_v6j50z1e9w","msl000125","fixation","","","img/fixation.png","null","","","test","","","","","","","","","","","","","","","","","","","",""
"309","","454893","SARL_v6j50z1e9w","msl000125","freq","","","img/green_2bandit_a2.png","70","","70","test","1","","","square","circle","96","92","6","5","0.9891304347826086","","","","","","","","","",""
"null","","455391","SARL_v6j50z1e9w","msl000125","freq_resp","","","img/green_2bandit_a.png","70","img/green_2bandit_a.png","70","test","","","","","","","","","5","","","","","","","","","","",""
"null","","455546","SARL_v6j50z1e9w","msl000125","fixation","","","img/fixation.png","null","","","test","","","","","","","","","","","","","","","","","","","",""
"318","","455869","SARL_v6j50z1e9w","msl000125","freq","","","img/green_2bandit_a2.png","70","","70","test","1","","","square","circle","97","93","7","5","0.989247311827957","","","","","","","","","",""
"null","","456356","SARL_v6j50z1e9w","msl000125","freq_resp","","","img/green_2bandit_a.png","70","img/green_2bandit_a.png","70","test","","","","","","","","","5","","","","","","","","","","",""
"null","","456511","SARL_v6j50z1e9w","msl000125","fixation","","","img/fixation.png","null","","","test","","","","","","","","","","","","","","","","","","","",""
"321","","456836","SARL_v6j50z1e9w","msl000125","freq","","","img/green_2bandit_a2.png","70","","70","test","1","","","square","circle","98","94","8","5","0.9893617021276596","","","","","","","","","",""
"null","","457321","SARL_v6j50z1e9w","msl000125","freq_resp","","","img/green_2bandit_a.png","70","img/green_2bandit_a.png","70","test","","","","","","","","","5","","","","","","","","","","",""
"null","","457476","SARL_v6j50z1e9w","msl000125","fixation","","","img/fixation.png","null","","","test","","","","","","","","","","","","","","","","","","","",""
"320","","457801","SARL_v6j50z1e9w","msl000125","freq","","","img/green_2bandit_a2.png","70","","70","test","1","","","square","circle","99","95","9","5","0.9894736842105263","","","","","","","","","",""
"null","","458285","SARL_v6j50z1e9w","msl000125","freq_resp","","","img/green_2bandit_a.png","70","img/green_2bandit_a.png","70","test","","","","","","","","","5","","","","","","","","","","",""
"null","","458441","SARL_v6j50z1e9w","msl000125","fixation","","","img/fixation.png","null","","","test","","","","","","","","","","","","","","","","","","","",""
"286","","458731","SARL_v6j50z1e9w","msl000125","freq","","","img/green_2bandit_a2.png","70","","70","test","1","","","square","circle","100","96","10","5","0.9895833333333334","","","","","","","","","",""
"null","","459250","SARL_v6j50z1e9w","msl000125","freq_resp","","","img/green_2bandit_a.png","70","img/green_2bandit_a.png","70","test","","","","","","","","","5","","","","","","","","","","",""
"null","","459405","SARL_v6j50z1e9w","msl000125","fixation","","","img/fixation.png","null","","","test","","","","","","","","","","","","","","","","","","","",""
"296","","459705","SARL_v6j50z1e9w","msl000125","freq","","","img/green_2bandit_a2.png","70","","70","test","1","","","square","circle","101","97","11","5","0.9896907216494846","","","","","","","","","",""
"null","","460214","SARL_v6j50z1e9w","msl000125","freq_resp","","","img/green_2bandit_a.png","70","img/green_2bandit_a.png","70","test","","","","","","","","","5","","","","","","","","","","",""
"null","","460370","SARL_v6j50z1e9w","msl000125","fixation","","","img/fixation.png","null","","","test","","","","","","","","","","","","","","","","","","","",""
"599","","460973","SARL_v6j50z1e9w","msl000125","infreq","","","img/orange_2bandit_a2.png","68","","68","test","1","","","square","circle","102","98","12","5","0.9897959183673469","","","","","","","","","",""
"null","","461180","SARL_v6j50z1e9w","msl000125","infreq_resp","","","img/orange_2bandit_a.png","68","img/orange_2bandit_a.png","68","test","","","","","","","","","5","","","","","","","","","","",""
"null","","461336","SARL_v6j50z1e9w","msl000125","fixation","","","img/fixation.png","null","","","test","","","","","","","","","","","","","","","","","","","",""
"476","","461817","SARL_v6j50z1e9w","msl000125","freq","","","img/green_2bandit_a2.png","70","","70","test","1","","","square","circle","103","99","13","5","0.98989898989899","","","","","","","","","",""
"null","","462147","SARL_v6j50z1e9w","msl000125","freq_resp","","","img/green_2bandit_a.png","70","img/green_2bandit_a.png","70","test","","","","","","","","","5","","","","","","","","","","",""
"null","","462303","SARL_v6j50z1e9w","msl000125","fixation","","","img/fixation.png","null","","","test","","","","","","","","","","","","","","","","","","","",""
"272","","462580","SARL_v6j50z1e9w","msl000125","freq","","","img/green_2bandit_a2.png","70","","70","test","1","","","square","circle","104","100","14","5","0.99","","","","","","","","","",""
"null","","463114","SARL_v6j50z1e9w","msl000125","freq_resp","","","img/green_2bandit_a.png","70","img/green_2bandit_a.png","70","test","","","","","","","","","5","","","","","","","","","","",""
"null","","463269","SARL_v6j50z1e9w","msl000125","fixation","","","img/fixation.png","null","","","test","","","","","","","","","","","","","","","","","","","",""
"290","","463565","SARL_v6j50z1e9w","msl000125","freq","","","img/green_2bandit_a2.png","70","","70","test","1","","","square","circle","105","101","15","5","0.9900990099009901","","","","","","","","","",""
"null","","464079","SARL_v6j50z1e9w","msl000125","freq_resp","","","img/green_2bandit_a.png","70","img/green_2bandit_a.png","70","test","","","","","","","","","5","","","","","","","","","","",""
"null","","464235","SARL_v6j50z1e9w","msl000125","fixation","","","img/fixation.png","null","","","test","","","","","","","","","","","","","","","","","","","",""
"328","","464568","SARL_v6j50z1e9w","msl000125","freq","","","img/green_2bandit_a2.png","70","","70","test","1","","","square","circle","106","102","16","5","0.9901960784313726","","","","","","","","","",""
"null","","465046","SARL_v6j50z1e9w","msl000125","freq_resp","","","img/green_2bandit_a.png","70","img/green_2bandit_a.png","70","test","","","","","","","","","5","","","","","","","","","","",""
"null","","465201","SARL_v6j50z1e9w","msl000125","fixation","","","img/fixation.png","null","","","test","","","","","","","","","","","","","","","","","","","",""
"296","","465501","SARL_v6j50z1e9w","msl000125","freq","","","img/green_2bandit_a2.png","70","","70","test","1","","","square","circle","107","103","17","5","0.9902912621359223","","","","","","","","","",""
"null","","466011","SARL_v6j50z1e9w","msl000125","freq_resp","","","img/green_2bandit_a.png","70","img/green_2bandit_a.png","70","test","","","","","","","","","5","","","","","","","","","","",""
"null","","466166","SARL_v6j50z1e9w","msl000125","fixation","","","img/fixation.png","null","","","test","","","","","","","","","","","","","","","","","","","",""
"281","","466451","SARL_v6j50z1e9w","msl000125","freq","","","img/green_2bandit_a2.png","70","","70","test","1","","","square","circle","108","104","18","5","0.9903846153846154","","","","","","","","","",""
"null","","466975","SARL_v6j50z1e9w","msl000125","freq_resp","","","img/green_2bandit_a.png","70","img/green_2bandit_a.png","70","test","","","","","","","","","5","","","","","","","","","","",""
"null","","467130","SARL_v6j50z1e9w","msl000125","fixation","","","img/fixation.png","null","","","test","","","","","","","","","","","","","","","","","","","",""
"505","","467642","SARL_v6j50z1e9w","msl000125","infreq","","","img/orange_2bandit_a2.png","68","","68","test","1","","","square","circle","109","105","19","5","0.9904761904761905","","","","","","","","","",""
"null","","467943","SARL_v6j50z1e9w","msl000125","infreq_resp","","","img/orange_2bandit_a.png","68","img/orange_2bandit_a.png","68","test","","","","","","","","","5","","","","","","","","","","",""
"null","","468098","SARL_v6j50z1e9w","msl000125","fixation","","","img/fixation.png","null","","","test","","","","","","","","","","","","","","","","","","","",""
"436","","468541","SARL_v6j50z1e9w","msl000125","freq","","","img/green_2bandit_a2.png","70","","70","test","1","","","square","circle","110","106","20","5","0.9905660377358491","","","","","","","","","",""
"null","","468910","SARL_v6j50z1e9w","msl000125","freq_resp","","","img/green_2bandit_a.png","70","img/green_2bandit_a.png","70","test","","","","","","","","","5","","","","","","","","","","",""
"null","","469067","SARL_v6j50z1e9w","msl000125","fixation","","","img/fixation.png","null","","","test","","","","","","","","","","","","","","","","","","","",""
"290","","469361","SARL_v6j50z1e9w","msl000125","freq","","","img/green_2bandit_a2.png","70","","70","test","1","","","square","circle","111","107","21","5","0.9906542056074766","","","","","","","","","",""
"null","","469877","SARL_v6j50z1e9w","msl000125","freq_resp","","","img/green_2bandit_a.png","70","img/green_2bandit_a.png","70","test","","","","","","","","","5","","","","","","","","","","",""
"null","","470032","SARL_v6j50z1e9w","msl000125","fixation","","","img/fixation.png","null","","","test","","","","","","","","","","","","","","","","","","","",""
"590","","470627","SARL_v6j50z1e9w","msl000125","infreq","","","img/orange_2bandit_a2.png","68","","68","test","1","","","square","circle","112","108","22","5","0.9907407407407407","","","","","","","","","",""
"null","","470842","SARL_v6j50z1e9w","msl000125","infreq_resp","","","img/orange_2bandit_a.png","68","img/orange_2bandit_a.png","68","test","","","","","","","","","5","","","","","","","","","","",""
"null","","470998","SARL_v6j50z1e9w","msl000125","fixation","","","img/fixation.png","null","","","test","","","","","","","","","","","","","","","","","","","",""
"449","","471450","SARL_v6j50z1e9w","msl000125","freq","","","img/green_2bandit_a2.png","70","","70","test","1","","","square","circle","113","109","23","5","0.9908256880733946","","","","","","","","","",""
"null","","471806","SARL_v6j50z1e9w","msl000125","freq_resp","","","img/green_2bandit_a.png","70","img/green_2bandit_a.png","70","test","","","","","","","","","5","","","","","","","","","","",""
"null","","471961","SARL_v6j50z1e9w","msl000125","fixation","","","img/fixation.png","null","","","test","","","","","","","","","","","","","","","","","","","",""
"298","","472264","SARL_v6j50z1e9w","msl000125","freq","","","img/green_2bandit_a2.png","70","","70","test","1","","","square","circle","114","110","24","5","0.990909090909091","","","","","","","","","",""
"null","","472772","SARL_v6j50z1e9w","msl000125","freq_resp","","","img/green_2bandit_a.png","70","img/green_2bandit_a.png","70","test","","","","","","","","","5","","","","","","","","","","",""
"null","","472927","SARL_v6j50z1e9w","msl000125","fixation","","","img/fixation.png","null","","","test","","","","","","","","","","","","","","","","","","","",""
"303","","473234","SARL_v6j50z1e9w","msl000125","freq","","","img/green_2bandit_a2.png","70","","70","test","1","","","square","circle","115","111","25","5","0.990990990990991","","","","","","","","","",""
"null","","473736","SARL_v6j50z1e9w","msl000125","freq_resp","","","img/green_2bandit_a.png","70","img/green_2bandit_a.png","70","test","","","","","","","","","5","","","","","","","","","","",""
"null","","473892","SARL_v6j50z1e9w","msl000125","fixation","","","img/fixation.png","null","","","test","","","","","","","","","","","","","","","","","","","",""
"727","","474624","SARL_v6j50z1e9w","msl000125","rl","","","img/black_2bandit_a2.png","75","","0","test","","","1","square","circle","116","","0","5","","75","0.8","0.2","0.7336877003250493","0.2","0.8","0.8","circle","5","0"
"null","","475379","SARL_v6j50z1e9w","msl000125","feedback","","","img/yay_R_a.png","null","","na","test","","","","","","","","","5","","75","0.8","0.2","","","","0.8","","5",""
"600","","475985","SARL_v6j50z1e9w","msl000125","freq","","","img/green_2bandit_a2.png","70","","70","test","1","","","square","circle","117","112","1","6","0.9910714285714286","","","","","","","","","",""
"null","","476190","SARL_v6j50z1e9w","msl000125","freq_resp","","","img/green_2bandit_a.png","70","img/green_2bandit_a.png","70","test","","","","","","","","","6","","","","","","","","","","",""
"null","","476346","SARL_v6j50z1e9w","msl000125","fixation","","","img/fixation.png","null","","","test","","","","","","","","","","","","","","","","","","","",""
"357","","476708","SARL_v6j50z1e9w","msl000125","freq","","","img/green_2bandit_a2.png","70","","70","test","1","","","square","circle","118","113","2","6","0.9911504424778761","","","","","","","","","",""
"null","","477156","SARL_v6j50z1e9w","msl000125","freq_resp","","","img/green_2bandit_a.png","70","img/green_2bandit_a.png","70","test","","","","","","","","","6","","","","","","","","","","",""
"null","","477311","SARL_v6j50z1e9w","msl000125","fixation","","","img/fixation.png","null","","","test","","","","","","","","","","","","","","","","","","","",""
"315","","477631","SARL_v6j50z1e9w","msl000125","freq","","","img/green_2bandit_a2.png","70","","70","test","1","","","square","circle","119","114","3","6","0.9912280701754386","","","","","","","","","",""
"null","","478121","SARL_v6j50z1e9w","msl000125","freq_resp","","","img/green_2bandit_a.png","70","img/green_2bandit_a.png","70","test","","","","","","","","","6","","","","","","","","","","",""
"null","","478276","SARL_v6j50z1e9w","msl000125","fixation","","","img/fixation.png","null","","","test","","","","","","","","","","","","","","","","","","","",""
"301","","478583","SARL_v6j50z1e9w","msl000125","freq","","","img/green_2bandit_a2.png","70","","70","test","1","","","square","circle","120","115","4","6","0.991304347826087","","","","","","","","","",""
"null","","479087","SARL_v6j50z1e9w","msl000125","freq_resp","","","img/green_2bandit_a.png","70","img/green_2bandit_a.png","70","test","","","","","","","","","6","","","","","","","","","","",""
"null","","479242","SARL_v6j50z1e9w","msl000125","fixation","","","img/fixation.png","null","","","test","","","","","","","","","","","","","","","","","","","",""
"287","","479534","SARL_v6j50z1e9w","msl000125","freq","","","img/green_2bandit_a2.png","70","","70","test","1","","","square","circle","121","116","5","6","0.9913793103448276","","","","","","","","","",""
"null","","480052","SARL_v6j50z1e9w","msl000125","freq_resp","","","img/green_2bandit_a.png","70","img/green_2bandit_a.png","70","test","","","","","","","","","6","","","","","","","","","","",""
"null","","480209","SARL_v6j50z1e9w","msl000125","fixation","","","img/fixation.png","null","","","test","","","","","","","","","","","","","","","","","","","",""
"288","","480501","SARL_v6j50z1e9w","msl000125","freq","","","img/green_2bandit_a2.png","70","","70","test","1","","","square","circle","122","117","6","6","0.9914529914529915","","","","","","","","","",""
"null","","481020","SARL_v6j50z1e9w","msl000125","freq_resp","","","img/green_2bandit_a.png","70","img/green_2bandit_a.png","70","test","","","","","","","","","6","","","","","","","","","","",""
"null","","481175","SARL_v6j50z1e9w","msl000125","fixation","","","img/fixation.png","null","","","test","","","","","","","","","","","","","","","","","","","",""
"280","","481460","SARL_v6j50z1e9w","msl000125","freq","","","img/green_2bandit_a2.png","70","","70","test","1","","","square","circle","123","118","7","6","0.9915254237288136","","","","","","","","","",""
"null","","481986","SARL_v6j50z1e9w","msl000125","freq_resp","","","img/green_2bandit_a.png","70","img/green_2bandit_a.png","70","test","","","","","","","","","6","","","","","","","","","","",""
"null","","482141","SARL_v6j50z1e9w","msl000125","fixation","","","img/fixation.png","null","","","test","","","","","","","","","","","","","","","","","","","",""
"303","","482450","SARL_v6j50z1e9w","msl000125","freq","","","img/green_2bandit_a2.png","70","","70","test","1","","","square","circle","124","119","8","6","0.9915966386554622","","","","","","","","","",""
"null","","482952","SARL_v6j50z1e9w","msl000125","freq_resp","","","img/green_2bandit_a.png","70","img/green_2bandit_a.png","70","test","","","","","","","","","6","","","","","","","","","","",""
"null","","483107","SARL_v6j50z1e9w","msl000125","fixation","","","img/fixation.png","null","","","test","","","","","","","","","","","","","","","","","","","",""
"301","","483414","SARL_v6j50z1e9w","msl000125","freq","","","img/green_2bandit_a2.png","70","","70","test","1","","","square","circle","125","120","9","6","0.9916666666666667","","","","","","","","","",""
"null","","483918","SARL_v6j50z1e9w","msl000125","freq_resp","","","img/green_2bandit_a.png","70","img/green_2bandit_a.png","70","test","","","","","","","","","6","","","","","","","","","","",""
"null","","484073","SARL_v6j50z1e9w","msl000125","fixation","","","img/fixation.png","null","","","test","","","","","","","","","","","","","","","","","","","",""
"289","","484368","SARL_v6j50z1e9w","msl000125","freq","","","img/green_2bandit_a2.png","70","","70","test","1","","","square","circle","126","121","10","6","0.9917355371900827","","","","","","","","","",""
"null","","484884","SARL_v6j50z1e9w","msl000125","freq_resp","","","img/green_2bandit_a.png","70","img/green_2bandit_a.png","70","test","","","","","","","","","6","","","","","","","","","","",""
"null","","485040","SARL_v6j50z1e9w","msl000125","fixation","","","img/fixation.png","null","","","test","","","","","","","","","","","","","","","","","","","",""
"252","","485296","SARL_v6j50z1e9w","msl000125","freq","","","img/green_2bandit_a2.png","70","","70","test","1","","","square","circle","127","122","11","6","0.9918032786885246","","","","","","","","","",""
"null","","485849","SARL_v6j50z1e9w","msl000125","freq_resp","","","img/green_2bandit_a.png","70","img/green_2bandit_a.png","70","test","","","","","","","","","6","","","","","","","","","","",""
"null","","486005","SARL_v6j50z1e9w","msl000125","fixation","","","img/fixation.png","null","","","test","","","","","","","","","","","","","","","","","","","",""
"286","","486296","SARL_v6j50z1e9w","msl000125","freq","","","img/green_2bandit_a2.png","70","","70","test","1","","","square","circle","128","123","12","6","0.991869918699187","","","","","","","","","",""
"null","","486815","SARL_v6j50z1e9w","msl000125","freq_resp","","","img/green_2bandit_a.png","70","img/green_2bandit_a.png","70","test","","","","","","","","","6","","","","","","","","","","",""
"null","","486971","SARL_v6j50z1e9w","msl000125","fixation","","","img/fixation.png","null","","","test","","","","","","","","","","","","","","","","","","","",""
"306","","487280","SARL_v6j50z1e9w","msl000125","freq","","","img/green_2bandit_a2.png","70","","70","test","1","","","square","circle","129","124","13","6","0.9919354838709677","","","","","","","","","",""
"null","","487780","SARL_v6j50z1e9w","msl000125","freq_resp","","","img/green_2bandit_a.png","70","img/green_2bandit_a.png","70","test","","","","","","","","","6","","","","","","","","","","",""
"null","","487935","SARL_v6j50z1e9w","msl000125","fixation","","","img/fixation.png","null","","","test","","","","","","","","","","","","","","","","","","","",""
"304","","488243","SARL_v6j50z1e9w","msl000125","freq","","","img/green_2bandit_a2.png","70","","70","test","1","","","square","circle","130","125","14","6","0.992","","","","","","","","","",""
"null","","488744","SARL_v6j50z1e9w","msl000125","freq_resp","","","img/green_2bandit_a.png","70","img/green_2bandit_a.png","70","test","","","","","","","","","6","","","","","","","","","","",""
"null","","488900","SARL_v6j50z1e9w","msl000125","fixation","","","img/fixation.png","null","","","test","","","","","","","","","","","","","","","","","","","",""
"304","","489208","SARL_v6j50z1e9w","msl000125","freq","","","img/green_2bandit_a2.png","70","","70","test","1","","","square","circle","131","126","15","6","0.9920634920634921","","","","","","","","","",""
"null","","489710","SARL_v6j50z1e9w","msl000125","freq_resp","","","img/green_2bandit_a.png","70","img/green_2bandit_a.png","70","test","","","","","","","","","6","","","","","","","","","","",""
"null","","489865","SARL_v6j50z1e9w","msl000125","fixation","","","img/fixation.png","null","","","test","","","","","","","","","","","","","","","","","","","",""
"491","","490360","SARL_v6j50z1e9w","msl000125","infreq","","","img/orange_2bandit_a2.png","68","","68","test","1","","","square","circle","132","127","16","6","0.9921259842519685","","","","","","","","","",""
"null","","490674","SARL_v6j50z1e9w","msl000125","infreq_resp","","","img/orange_2bandit_a.png","68","img/orange_2bandit_a.png","68","test","","","","","","","","","6","","","","","","","","","","",""
"null","","490829","SARL_v6j50z1e9w","msl000125","fixation","","","img/fixation.png","null","","","test","","","","","","","","","","","","","","","","","","","",""
"430","","491265","SARL_v6j50z1e9w","msl000125","freq","","","img/green_2bandit_a2.png","70","","70","test","1","","","square","circle","133","128","17","6","0.9921875","","","","","","","","","",""
"null","","491640","SARL_v6j50z1e9w","msl000125","freq_resp","","","img/green_2bandit_a.png","70","img/green_2bandit_a.png","70","test","","","","","","","","","6","","","","","","","","","","",""
"null","","491796","SARL_v6j50z1e9w","msl000125","fixation","","","img/fixation.png","null","","","test","","","","","","","","","","","","","","","","","","","",""
"289","","492090","SARL_v6j50z1e9w","msl000125","freq","","","img/green_2bandit_a2.png","70","","70","test","1","","","square","circle","134","129","18","6","0.9922480620155039","","","","","","","","","",""
"null","","492606","SARL_v6j50z1e9w","msl000125","freq_resp","","","img/green_2bandit_a.png","70","img/green_2bandit_a.png","70","test","","","","","","","","","6","","","","","","","","","","",""
"null","","492761","SARL_v6j50z1e9w","msl000125","fixation","","","img/fixation.png","null","","","test","","","","","","","","","","","","","","","","","","","",""
"302","","493067","SARL_v6j50z1e9w","msl000125","freq","","","img/green_2bandit_a2.png","70","","70","test","1","","","square","circle","135","130","19","6","0.9923076923076923","","","","","","","","","",""
"null","","493572","SARL_v6j50z1e9w","msl000125","freq_resp","","","img/green_2bandit_a.png","70","img/green_2bandit_a.png","70","test","","","","","","","","","6","","","","","","","","","","",""
"null","","493726","SARL_v6j50z1e9w","msl000125","fixation","","","img/fixation.png","null","","","test","","","","","","","","","","","","","","","","","","","",""
"307","","494038","SARL_v6j50z1e9w","msl000125","freq","","","img/green_2bandit_a2.png","70","","70","test","1","","","square","circle","136","131","20","6","0.9923664122137404","","","","","","","","","",""
"null","","494536","SARL_v6j50z1e9w","msl000125","freq_resp","","","img/green_2bandit_a.png","70","img/green_2bandit_a.png","70","test","","","","","","","","","6","","","","","","","","","","",""
"null","","494691","SARL_v6j50z1e9w","msl000125","fixation","","","img/fixation.png","null","","","test","","","","","","","","","","","","","","","","","","","",""
"347","","495042","SARL_v6j50z1e9w","msl000125","freq","","","img/green_2bandit_a2.png","70","","70","test","1","","","square","circle","137","132","21","6","0.9924242424242424","","","","","","","","","",""
"null","","495501","SARL_v6j50z1e9w","msl000125","freq_resp","","","img/green_2bandit_a.png","70","img/green_2bandit_a.png","70","test","","","","","","","","","6","","","","","","","","","","",""
"null","","495656","SARL_v6j50z1e9w","msl000125","fixation","","","img/fixation.png","null","","","test","","","","","","","","","","","","","","","","","","","",""
"594","","496255","SARL_v6j50z1e9w","msl000125","infreq","","","img/orange_2bandit_a2.png","68","","68","test","1","","","square","circle","138","133","22","6","0.9924812030075187","","","","","","","","","",""
"null","","496465","SARL_v6j50z1e9w","msl000125","infreq_resp","","","img/orange_2bandit_a.png","68","img/orange_2bandit_a.png","68","test","","","","","","","","","6","","","","","","","","","","",""
"null","","496621","SARL_v6j50z1e9w","msl000125","fixation","","","img/fixation.png","null","","","test","","","","","","","","","","","","","","","","","","","",""
"428","","497054","SARL_v6j50z1e9w","msl000125","freq","","","img/green_2bandit_a2.png","70","","70","test","1","","","square","circle","139","134","23","6","0.9925373134328358","","","","","","","","","",""
"null","","497431","SARL_v6j50z1e9w","msl000125","freq_resp","","","img/green_2bandit_a.png","70","img/green_2bandit_a.png","70","test","","","","","","","","","6","","","","","","","","","","",""
"null","","497586","SARL_v6j50z1e9w","msl000125","fixation","","","img/fixation.png","null","","","test","","","","","","","","","","","","","","","","","","","",""
"1225","","498816","SARL_v6j50z1e9w","msl000125","rl","","","img/black_2bandit_a2.png","75","","0","test","","","1","square","circle","140","","0","6","","75","0.8","0.2","0.0725872663322118","0.2","0.8","0.8","circle","6","0"
"null","","499571","SARL_v6j50z1e9w","msl000125","feedback","","","img/yay_R_a.png","null","","na","test","","","","","","","","","6","","75","0.8","0.2","","","","0.8","","6",""
"527","","500102","SARL_v6j50z1e9w","msl000125","freq","","","img/green_2bandit_a2.png","70","","70","test","1","","","square","circle","141","135","1","7","0.9925925925925926","","","","","","","","","",""
"null","","500380","SARL_v6j50z1e9w","msl000125","freq_resp","","","img/green_2bandit_a.png","70","img/green_2bandit_a.png","70","test","","","","","","","","","7","","","","","","","","","","",""
"null","","500535","SARL_v6j50z1e9w","msl000125","fixation","","","img/fixation.png","null","","","test","","","","","","","","","","","","","","","","","","","",""
"727","","501267","SARL_v6j50z1e9w","msl000125","infreq","","","img/orange_2bandit_a2.png","68","","68","test","1","","","square","circle","142","136","2","7","0.9926470588235294","","","","","","","","","",""
"null","","501345","SARL_v6j50z1e9w","msl000125","infreq_resp","","","img/orange_2bandit_a.png","68","img/orange_2bandit_a.png","68","test","","","","","","","","","7","","","","","","","","","","",""
"null","","501501","SARL_v6j50z1e9w","msl000125","fixation","","","img/fixation.png","null","","","test","","","","","","","","","","","","","","","","","","","",""
"483","","501989","SARL_v6j50z1e9w","msl000125","freq","","","img/green_2bandit_a2.png","70","","70","test","1","","","square","circle","143","137","3","7","0.9927007299270073","","","","","","","","","",""
"null","","502312","SARL_v6j50z1e9w","msl000125","freq_resp","","","img/green_2bandit_a.png","70","img/green_2bandit_a.png","70","test","","","","","","","","","7","","","","","","","","","","",""
"null","","502466","SARL_v6j50z1e9w","msl000125","fixation","","","img/fixation.png","null","","","test","","","","","","","","","","","","","","","","","","","",""
"322","","502793","SARL_v6j50z1e9w","msl000125","freq","","","img/green_2bandit_a2.png","70","","70","test","1","","","square","circle","144","138","4","7","0.9927536231884058","","","","","","","","","",""
"null","","503277","SARL_v6j50z1e9w","msl000125","freq_resp","","","img/green_2bandit_a.png","70","img/green_2bandit_a.png","70","test","","","","","","","","","7","","","","","","","","","","",""
"null","","503432","SARL_v6j50z1e9w","msl000125","fixation","","","img/fixation.png","null","","","test","","","","","","","","","","","","","","","","","","","",""
"289","","503725","SARL_v6j50z1e9w","msl000125","freq","","","img/green_2bandit_a2.png","70","","70","test","1","","","square","circle","145","139","5","7","0.9928057553956835","","","","","","","","","",""
"null","","504241","SARL_v6j50z1e9w","msl000125","freq_resp","","","img/green_2bandit_a.png","70","img/green_2bandit_a.png","70","test","","","","","","","","","7","","","","","","","","","","",""
"null","","504396","SARL_v6j50z1e9w","msl000125","fixation","","","img/fixation.png","null","","","test","","","","","","","","","","","","","","","","","","","",""
"278","","504679","SARL_v6j50z1e9w","msl000125","freq","","","img/green_2bandit_a2.png","70","","70","test","1","","","square","circle","146","140","6","7","0.9928571428571429","","","","","","","","","",""
"null","","505206","SARL_v6j50z1e9w","msl000125","freq_resp","","","img/green_2bandit_a.png","70","img/green_2bandit_a.png","70","test","","","","","","","","","7","","","","","","","","","","",""
"null","","505361","SARL_v6j50z1e9w","msl000125","fixation","","","img/fixation.png","null","","","test","","","","","","","","","","","","","","","","","","","",""
"271","","505638","SARL_v6j50z1e9w","msl000125","freq","","","img/green_2bandit_a2.png","70","","70","test","1","","","square","circle","147","141","7","7","0.9929078014184397","","","","","","","","","",""
"null","","506172","SARL_v6j50z1e9w","msl000125","freq_resp","","","img/green_2bandit_a.png","70","img/green_2bandit_a.png","70","test","","","","","","","","","7","","","","","","","","","","",""
"null","","506328","SARL_v6j50z1e9w","msl000125","fixation","","","img/fixation.png","null","","","test","","","","","","","","","","","","","","","","","","","",""
"410","","506743","SARL_v6j50z1e9w","msl000125","freq","","","img/green_2bandit_a2.png","70","","70","test","1","","","square","circle","148","142","8","7","0.9929577464788732","","","","","","","","","",""
"null","","507138","SARL_v6j50z1e9w","msl000125","freq_resp","","","img/green_2bandit_a.png","70","img/green_2bandit_a.png","70","test","","","","","","","","","7","","","","","","","","","","",""
"null","","507293","SARL_v6j50z1e9w","msl000125","fixation","","","img/fixation.png","null","","","test","","","","","","","","","","","","","","","","","","","",""
"317","","507616","SARL_v6j50z1e9w","msl000125","freq","","","img/green_2bandit_a2.png","70","","70","test","1","","","square","circle","149","143","9","7","0.993006993006993","","","","","","","","","",""
"null","","508104","SARL_v6j50z1e9w","msl000125","freq_resp","","","img/green_2bandit_a.png","70","img/green_2bandit_a.png","70","test","","","","","","","","","7","","","","","","","","","","",""
"null","","508259","SARL_v6j50z1e9w","msl000125","fixation","","","img/fixation.png","null","","","test","","","","","","","","","","","","","","","","","","","",""
"302","","508566","SARL_v6j50z1e9w","msl000125","freq","","","img/green_2bandit_a2.png","70","","70","test","1","","","square","circle","150","144","10","7","0.9930555555555556","","","","","","","","","",""
"null","","509070","SARL_v6j50z1e9w","msl000125","freq_resp","","","img/green_2bandit_a.png","70","img/green_2bandit_a.png","70","test","","","","","","","","","7","","","","","","","","","","",""
"null","","509224","SARL_v6j50z1e9w","msl000125","fixation","","","img/fixation.png","null","","","test","","","","","","","","","","","","","","","","","","","",""
