"rt","responses","time_elapsed","subject","demoID","trialType","rlType","attType","stimulus","key_press","stim","corrresp","phase","corr","pracCounter","reward","bandOne","bandTwo","trialNum","attentionNum","attentionRunNum","blockNum","performance","bandChosen","circleVal","squareVal","coin","bandOneVal","bandTwoVal","pReward","shapeChosen","rlNum","badFlag"
"1914331","{""Q0"":""msl000082""}","1914357","SARL_v6rt2s4yzx","msl000082","","","","","","","","","","","","","","","","","","","","","","","","","","","",""
"17512","","1931876","SARL_v6rt2s4yzx","msl000082","","","","","","","","","","","","","","","","","","","","","","","","","","","",""
"","","1934730","SARL_v6rt2s4yzx","msl000082","fullscreen","fullscreen","fullscreen","","","","","","","","","","","","","","","","","","","","","","","","",""
"88400","","2023136","SARL_v6rt2s4yzx","msl000082","","","","","","","","","","","","","","","","","","","","","","","","","","","",""
"null","","2023942","SARL_v6rt2s4yzx","msl000082","freqPrac","","","img/orange_2bandit_a2.png","null","img/orange_2bandit_a2.png","70","prac","0","1","","","","","","","","","","","","","","","","","",""
"null","","2024949","SARL_v6rt2s4yzx","msl000082","feedback","","","img/tooSlow.png","null","","na","prac","","","","","","","","","","","","","","","","","","","",""
"null","","2025104","SARL_v6rt2s4yzx","msl000082","fixation","","","img/fixation.png","null","","","prac","","","","","","","","","","","","","","","","","","","",""
"766","","2025876","SARL_v6rt2s4yzx","msl000082","infreqPrac","","","img/green_2bandit_a2.png","68","img/green_2bandit_a2.png","68","prac","1","1","","","","","","","","","","","","","","","","","",""
"766","","2025916","SARL_v6rt2s4yzx","msl000082","infreqPrac_resp","","","img/green_2bandit_a.png","68","img/green_2bandit_a.png","68","prac","","","","","","","","","","","","","","","","","","","",""
"0","","2026071","SARL_v6rt2s4yzx","msl000082","fixation","","","img/fixation.png","70","","","prac","","","","","","","","","","","","","","","","","","","",""
"null","","2026877","SARL_v6rt2s4yzx","msl000082","freqPrac","","","img/orange_2bandit_a2.png","null","img/orange_2bandit_a2.png","70","prac","0","2","","","","","","","","","","","","","","","","","",""
"null","","2027884","SARL_v6rt2s4yzx","msl000082","feedback","","","img/tooSlow.png","null","","na","prac","","","","","","","","","","","","","","","","","","","",""
"null","","2028040","SARL_v6rt2s4yzx","msl000082","fixation","","","img/fixation.png","null","","","prac","","","","","","","","","","","","","","","","","","","",""
"507","","2028552","SARL_v6rt2s4yzx","msl000082","infreqPrac","","","img/green_2bandit_a2.png","68","img/green_2bandit_a2.png","68","prac","1","2","","","","","","","","","","","","","","","","","",""
"507","","2028851","SARL_v6rt2s4yzx","msl000082","infreqPrac_resp","","","img/green_2bandit_a.png","68","img/green_2bandit_a.png","68","prac","","","","","","","","","","","","","","","","","","","",""
"null","","2029008","SARL_v6rt2s4yzx","msl000082","fixation","","","img/fixation.png","null","","","prac","","","","","","","","","","","","","","","","","","","",""
"458","","2029470","SARL_v6rt2s4yzx","msl000082","infreqPrac","","","img/green_2bandit_a2.png","68","img/green_2bandit_a2.png","68","prac","1","2","","","","","","","","","","","","","","","","","",""
"458","","2029818","SARL_v6rt2s4yzx","msl000082","infreqPrac_resp","","","img/green_2bandit_a.png","68","img/green_2bandit_a.png","68","prac","","","","","","","","","","","","","","","","","","","",""
"null","","2029973","SARL_v6rt2s4yzx","msl000082","fixation","","","img/fixation.png","null","","","prac","","","","","","","","","","","","","","","","","","","",""
"336","","2030313","SARL_v6rt2s4yzx","msl000082","infreqPrac","","","img/green_2bandit_a2.png","68","img/green_2bandit_a2.png","68","prac","1","2","","","","","","","","","","","","","","","","","",""
"336","","2030782","SARL_v6rt2s4yzx","msl000082","infreqPrac_resp","","","img/green_2bandit_a.png","68","img/green_2bandit_a.png","68","prac","","","","","","","","","","","","","","","","","","","",""
"null","","2030938","SARL_v6rt2s4yzx","msl000082","fixation","","","img/fixation.png","null","","","prac","","","","","","","","","","","","","","","","","","","",""
"425","","2031368","SARL_v6rt2s4yzx","msl000082","freqPrac","","","img/orange_2bandit_a2.png","70","img/orange_2bandit_a2.png","70","prac","1","2","","","","","","","","","","","","","","","","","",""
"425","","2031748","SARL_v6rt2s4yzx","msl000082","freqPrac_resp","","","img/orange_2bandit_a.png","70","img/orange_2bandit_a.png","70","prac","","","","","","","","","","","","","","","","","","","",""
"null","","2031905","SARL_v6rt2s4yzx","msl000082","fixation","","","img/fixation.png","null","","","prac","","","","","","","","","","","","","","","","","","","",""
"296","","2032205","SARL_v6rt2s4yzx","msl000082","infreqPrac","","","img/green_2bandit_a2.png","70","img/green_2bandit_a2.png","68","prac","0","3","","","","","","","","","","","","","","","","","",""
"296","","2032715","SARL_v6rt2s4yzx","msl000082","infreqPrac_resp","","","img/green_2bandit_a.png","70","img/green_2bandit_a.png","68","prac","","","","","","","","","","","","","","","","","","","",""
"null","","2033721","SARL_v6rt2s4yzx","msl000082","feedback","","","img/wrongKey.png","null","","na","prac","","","","","","","","","","","","","","","","","","","",""
"null","","2033878","SARL_v6rt2s4yzx","msl000082","fixation","","","img/fixation.png","null","","","prac","","","","","","","","","","","","","","","","","","","",""
"563","","2034446","SARL_v6rt2s4yzx","msl000082","freqPrac","","","img/orange_2bandit_a2.png","68","img/orange_2bandit_a2.png","70","prac","0","4","","","","","","","","","","","","","","","","","",""
"563","","2034689","SARL_v6rt2s4yzx","msl000082","freqPrac_resp","","","img/orange_2bandit_a.png","68","img/orange_2bandit_a.png","70","prac","","","","","","","","","","","","","","","","","","","",""
"null","","2035695","SARL_v6rt2s4yzx","msl000082","feedback","","","img/wrongKey.png","null","","na","prac","","","","","","","","","","","","","","","","","","","",""
"null","","2035850","SARL_v6rt2s4yzx","msl000082","fixation","","","img/fixation.png","null","","","prac","","","","","","","","","","","","","","","","","","","",""
"558","","2036415","SARL_v6rt2s4yzx","msl000082","freqPrac","","","img/orange_2bandit_a2.png","70","img/orange_2bandit_a2.png","70","prac","1","4","","","","","","","","","","","","","","","","","",""
"558","","2036662","SARL_v6rt2s4yzx","msl000082","freqPrac_resp","","","img/orange_2bandit_a.png","70","img/orange_2bandit_a.png","70","prac","","","","","","","","","","","","","","","","","","","",""
"null","","2036818","SARL_v6rt2s4yzx","msl000082","fixation","","","img/fixation.png","null","","","prac","","","","","","","","","","","","","","","","","","","",""
"38294","","2075116","SARL_v6rt2s4yzx","msl000082","","","","","","","","prac","","","","","","","","","","","","","","","","","","","",""
"781","","2075904","SARL_v6rt2s4yzx","msl000082","rlPractice","","","img/black_2bandit_a2.png","74","img/black_2bandit_a2.png","","prac","","","75","","","","","","","","","","","","","","","","",""
"null","","2076660","SARL_v6rt2s4yzx","msl000082","feedback","","","img/boo_L_a.png","null","","na","prac","","","","","","","","","","","","","","","","","","","",""
"null","","2076816","SARL_v6rt2s4yzx","msl000082","fixation","","","img/fixation.png","null","","","prac","","","","","","","","","","","","","","","","","","","",""
"570","","2077390","SARL_v6rt2s4yzx","msl000082","rlPractice","","","img/black_2bandit_a2.png","75","img/black_2bandit_a2.png","","prac","","","75","","","","","","","","","","","","","","","","",""
"null","","2078148","SARL_v6rt2s4yzx","msl000082","feedback","","","img/yay_R_a.png","null","","na","prac","","","","","","","","","","","","","","","","","","","",""
"null","","2078303","SARL_v6rt2s4yzx","msl000082","fixation","","","img/fixation.png","null","","","prac","","","","","","","","","","","","","","","","","","","",""
"588","","2078897","SARL_v6rt2s4yzx","msl000082","rlPractice","","","img/black_2bandit_a2.png","75","img/black_2bandit_a2.png","","prac","","","75","","","","","","","","","","","","","","","","",""
"null","","2079654","SARL_v6rt2s4yzx","msl000082","feedback","","","img/yay_R_a.png","null","","na","prac","","","","","","","","","","","","","","","","","","","",""
"null","","2079808","SARL_v6rt2s4yzx","msl000082","fixation","","","img/fixation.png","null","","","prac","","","","","","","","","","","","","","","","","","","",""
"1151","","2080965","SARL_v6rt2s4yzx","msl000082","rlPractice","","","img/black_2bandit_a2.png","75","img/black_2bandit_a2.png","","prac","","","75","","","","","","","","","","","","","","","","",""
"null","","2081720","SARL_v6rt2s4yzx","msl000082","feedback","","","img/yay_R_a.png","null","","na","prac","","","","","","","","","","","","","","","","","","","",""
"null","","2081876","SARL_v6rt2s4yzx","msl000082","fixation","","","img/fixation.png","null","","","prac","","","","","","","","","","","","","","","","","","","",""
"647","","2082528","SARL_v6rt2s4yzx","msl000082","rlPractice","","","img/black_2bandit_a2.png","75","img/black_2bandit_a2.png","","prac","","","75","","","","","","","","","","","","","","","","",""
"null","","2083283","SARL_v6rt2s4yzx","msl000082","feedback","","","img/yay_R_a.png","null","","na","prac","","","","","","","","","","","","","","","","","","","",""
"null","","2083438","SARL_v6rt2s4yzx","msl000082","fixation","","","img/fixation.png","null","","","prac","","","","","","","","","","","","","","","","","","","",""
"628","","2084071","SARL_v6rt2s4yzx","msl000082","rlPractice","","","img/black_2bandit_a2.png","74","img/black_2bandit_a2.png","","prac","","","75","","","","","","","","","","","","","","","","",""
"null","","2084825","SARL_v6rt2s4yzx","msl000082","feedback","","","img/boo_L_a.png","null","","na","prac","","","","","","","","","","","","","","","","","","","",""
"null","","2084982","SARL_v6rt2s4yzx","msl000082","fixation","","","img/fixation.png","null","","","prac","","","","","","","","","","","","","","","","","","","",""
"570","","2085557","SARL_v6rt2s4yzx","msl000082","rlPractice","","","img/black_2bandit_a2.png","75","img/black_2bandit_a2.png","","prac","","","75","","","","","","","","","","","","","","","","",""
"null","","2086313","SARL_v6rt2s4yzx","msl000082","feedback","","","img/yay_R_a.png","null","","na","prac","","","","","","","","","","","","","","","","","","","",""
"null","","2086468","SARL_v6rt2s4yzx","msl000082","fixation","","","img/fixation.png","null","","","prac","","","","","","","","","","","","","","","","","","","",""
"37778","","2124252","SARL_v6rt2s4yzx","msl000082","","","","","","","","prac","","","","","","","","","","","","","","","","","","","",""
"null","","2125057","SARL_v6rt2s4yzx","msl000082","mixAttFreqPrac","","","img/orange_2bandit_a2.png","null","img/orange_2bandit_a2.png","70","prac","","","","","","","","","","","","","","","","","","","",""
"55","","2125214","SARL_v6rt2s4yzx","msl000082","fixation","","","img/fixation.png","70","","","prac","","","","","","","","","","","","","","","","","","","",""
"null","","2126020","SARL_v6rt2s4yzx","msl000082","mixAttInfreqPrac","","","img/green_2bandit_a2.png","null","img/green_2bandit_a2.png","68","prac","","","","","","","","","","","","","","","","","","","",""
"112","","2126176","SARL_v6rt2s4yzx","msl000082","fixation","","","img/fixation.png","68","","","prac","","","","","","","","","","","","","","","","","","","",""
"693","","2126875","SARL_v6rt2s4yzx","msl000082","mixAttInfreqPrac","","","img/green_2bandit_a2.png","68","img/green_2bandit_a2.png","68","prac","","","","","","","","","","","","","","","","","","","",""
"693","","2126988","SARL_v6rt2s4yzx","msl000082","infreqPrac_resp","","","img/green_2bandit_a.png","68","img/orange_2bandit_a.png","68","prac","","","","","","","","","","","","","","","","","","","",""
"null","","2127144","SARL_v6rt2s4yzx","msl000082","fixation","","","img/fixation.png","null","","","prac","","","","","","","","","","","","","","","","","","","",""
"640","","2127789","SARL_v6rt2s4yzx","msl000082","mixAttInfreqPrac","","","img/green_2bandit_a2.png","70","img/green_2bandit_a2.png","68","prac","","","","","","","","","","","","","","","","","","","",""
"640","","2127955","SARL_v6rt2s4yzx","msl000082","infreqPrac_resp","","","img/green_2bandit_a.png","70","img/orange_2bandit_a.png","68","prac","","","","","","","","","","","","","","","","","","","",""
"null","","2128111","SARL_v6rt2s4yzx","msl000082","fixation","","","img/fixation.png","null","","","prac","","","","","","","","","","","","","","","","","","","",""
"552","","2128666","SARL_v6rt2s4yzx","msl000082","mixAttFreqPrac","","","img/orange_2bandit_a2.png","70","img/orange_2bandit_a2.png","70","prac","","","","","","","","","","","","","","","","","","","",""
"552","","2128919","SARL_v6rt2s4yzx","msl000082","freqPrac_resp","","","img/orange_2bandit_a.png","70","img/orange_2bandit_a.png","70","prac","","","","","","","","","","","","","","","","","","","",""
"null","","2129075","SARL_v6rt2s4yzx","msl000082","fixation","","","img/fixation.png","null","","","prac","","","","","","","","","","","","","","","","","","","",""
"648","","2129728","SARL_v6rt2s4yzx","msl000082","mixRLPractice","","","img/black_2bandit_a2.png","76","img/black_2bandit_a2.png","","prac","","","","","","","","","","","","","","","","","","","",""
"null","","2130485","SARL_v6rt2s4yzx","msl000082","feedback","","","","null","","na","prac","","","","","","","","","","","","","","","","","","","",""
"null","","2131291","SARL_v6rt2s4yzx","msl000082","mixAttFreqPrac","","","img/orange_2bandit_a2.png","null","img/orange_2bandit_a2.png","70","prac","","","","","","","","","","","","","","","","","","","",""
"null","","2131448","SARL_v6rt2s4yzx","msl000082","fixation","","","img/fixation.png","null","","","prac","","","","","","","","","","","","","","","","","","","",""
"575","","2132028","SARL_v6rt2s4yzx","msl000082","mixAttInfreqPrac","","","img/green_2bandit_a2.png","70","img/green_2bandit_a2.png","68","prac","","","","","","","","","","","","","","","","","","","",""
"575","","2132258","SARL_v6rt2s4yzx","msl000082","infreqPrac_resp","","","img/green_2bandit_a.png","70","img/orange_2bandit_a.png","68","prac","","","","","","","","","","","","","","","","","","","",""
"null","","2132414","SARL_v6rt2s4yzx","msl000082","fixation","","","img/fixation.png","null","","","prac","","","","","","","","","","","","","","","","","","","",""
"586","","2133006","SARL_v6rt2s4yzx","msl000082","mixAttFreqPrac","","","img/orange_2bandit_a2.png","68","img/orange_2bandit_a2.png","70","prac","","","","","","","","","","","","","","","","","","","",""
"586","","2133224","SARL_v6rt2s4yzx","msl000082","freqPrac_resp","","","img/orange_2bandit_a.png","68","img/orange_2bandit_a.png","70","prac","","","","","","","","","","","","","","","","","","","",""
"null","","2133380","SARL_v6rt2s4yzx","msl000082","fixation","","","img/fixation.png","null","","","prac","","","","","","","","","","","","","","","","","","","",""
"569","","2133953","SARL_v6rt2s4yzx","msl000082","mixAttFreqPrac","","","img/orange_2bandit_a2.png","68","img/orange_2bandit_a2.png","70","prac","","","","","","","","","","","","","","","","","","","",""
"569","","2134189","SARL_v6rt2s4yzx","msl000082","freqPrac_resp","","","img/orange_2bandit_a.png","68","img/orange_2bandit_a.png","70","prac","","","","","","","","","","","","","","","","","","","",""
"null","","2134346","SARL_v6rt2s4yzx","msl000082","fixation","","","img/fixation.png","null","","","prac","","","","","","","","","","","","","","","","","","","",""
"578","","2134929","SARL_v6rt2s4yzx","msl000082","mixAttInfreqPrac","","","img/green_2bandit_a2.png","70","img/green_2bandit_a2.png","68","prac","","","","","","","","","","","","","","","","","","","",""
"578","","2135156","SARL_v6rt2s4yzx","msl000082","infreqPrac_resp","","","img/green_2bandit_a.png","70","img/orange_2bandit_a.png","68","prac","","","","","","","","","","","","","","","","","","","",""
"null","","2135311","SARL_v6rt2s4yzx","msl000082","fixation","","","img/fixation.png","null","","","prac","","","","","","","","","","","","","","","","","","","",""
"506","","2135822","SARL_v6rt2s4yzx","msl000082","mixRLPractice","","","img/black_2bandit_a2.png","75","img/black_2bandit_a2.png","","prac","","","","","","","","","","","","","","","","","","","",""
"null","","2136577","SARL_v6rt2s4yzx","msl000082","feedback","","","img/boo_R_a.png","null","","na","prac","","","","","","","","","","","","","","","","","","","",""
"46241","","2182822","SARL_v6rt2s4yzx","msl000082","","","","","","","","prac","","","","","","","","","","","","","","","","","","","",""
"542","","2183368","SARL_v6rt2s4yzx","msl000082","freq","","","img/orange_2bandit_a2.png","70","","70","test","1","","","square","circle","1","1","1","1","1","","","","","","","","","",""
"null","","2183633","SARL_v6rt2s4yzx","msl000082","freq_resp","","","img/orange_2bandit_a.png","70","img/orange_2bandit_a.png","70","test","","","","","","","","","1","","","","","","","","","","",""
"null","","2183788","SARL_v6rt2s4yzx","msl000082","fixation","","","img/fixation.png","null","","","test","","","","","","","","","","","","","","","","","","","",""
"415","","2184209","SARL_v6rt2s4yzx","msl000082","freq","","","img/orange_2bandit_a2.png","70","","70","test","1","","","square","circle","2","2","2","1","1","","","","","","","","","",""
"null","","2184600","SARL_v6rt2s4yzx","msl000082","freq_resp","","","img/orange_2bandit_a.png","70","img/orange_2bandit_a.png","70","test","","","","","","","","","1","","","","","","","","","","",""
"null","","2184755","SARL_v6rt2s4yzx","msl000082","fixation","","","img/fixation.png","null","","","test","","","","","","","","","","","","","","","","","","","",""
"377","","2185138","SARL_v6rt2s4yzx","msl000082","freq","","","img/orange_2bandit_a2.png","70","","70","test","1","","","square","circle","3","3","3","1","1","","","","","","","","","",""
"null","","2185566","SARL_v6rt2s4yzx","msl000082","freq_resp","","","img/orange_2bandit_a.png","70","img/orange_2bandit_a.png","70","test","","","","","","","","","1","","","","","","","","","","",""
"null","","2185723","SARL_v6rt2s4yzx","msl000082","fixation","","","img/fixation.png","null","","","test","","","","","","","","","","","","","","","","","","","",""
"408","","2186135","SARL_v6rt2s4yzx","msl000082","infreq","","","img/green_2bandit_a2.png","68","","68","test","1","","","square","circle","4","4","4","1","1","","","","","","","","","",""
"null","","2186533","SARL_v6rt2s4yzx","msl000082","infreq_resp","","","img/green_2bandit_a.png","68","img/green_2bandit_a.png","68","test","","","","","","","","","1","","","","","","","","","","",""
"null","","2186688","SARL_v6rt2s4yzx","msl000082","fixation","","","img/fixation.png","null","","","test","","","","","","","","","","","","","","","","","","","",""
"408","","2187099","SARL_v6rt2s4yzx","msl000082","freq","","","img/orange_2bandit_a2.png","70","","70","test","1","","","square","circle","5","5","5","1","1","","","","","","","","","",""
"null","","2187497","SARL_v6rt2s4yzx","msl000082","freq_resp","","","img/orange_2bandit_a.png","70","img/orange_2bandit_a.png","70","test","","","","","","","","","1","","","","","","","","","","",""
"null","","2187652","SARL_v6rt2s4yzx","msl000082","fixation","","","img/fixation.png","null","","","test","","","","","","","","","","","","","","","","","","","",""
"361","","2188018","SARL_v6rt2s4yzx","msl000082","freq","","","img/orange_2bandit_a2.png","70","","70","test","1","","","square","circle","6","6","6","1","1","","","","","","","","","",""
"null","","2188463","SARL_v6rt2s4yzx","msl000082","freq_resp","","","img/orange_2bandit_a.png","70","img/orange_2bandit_a.png","70","test","","","","","","","","","1","","","","","","","","","","",""
"null","","2188618","SARL_v6rt2s4yzx","msl000082","fixation","","","img/fixation.png","null","","","test","","","","","","","","","","","","","","","","","","","",""
"379","","2189002","SARL_v6rt2s4yzx","msl000082","freq","","","img/orange_2bandit_a2.png","70","","70","test","1","","","square","circle","7","7","7","1","1","","","","","","","","","",""
"null","","2189430","SARL_v6rt2s4yzx","msl000082","freq_resp","","","img/orange_2bandit_a.png","70","img/orange_2bandit_a.png","70","test","","","","","","","","","1","","","","","","","","","","",""
"null","","2189586","SARL_v6rt2s4yzx","msl000082","fixation","","","img/fixation.png","null","","","test","","","","","","","","","","","","","","","","","","","",""
"346","","2189937","SARL_v6rt2s4yzx","msl000082","freq","","","img/orange_2bandit_a2.png","70","","70","test","1","","","square","circle","8","8","8","1","1","","","","","","","","","",""
"null","","2190397","SARL_v6rt2s4yzx","msl000082","freq_resp","","","img/orange_2bandit_a.png","70","img/orange_2bandit_a.png","70","test","","","","","","","","","1","","","","","","","","","","",""
"null","","2190553","SARL_v6rt2s4yzx","msl000082","fixation","","","img/fixation.png","null","","","test","","","","","","","","","","","","","","","","","","","",""
"355","","2190915","SARL_v6rt2s4yzx","msl000082","freq","","","img/orange_2bandit_a2.png","70","","70","test","1","","","square","circle","9","9","9","1","1","","","","","","","","","",""
"null","","2191366","SARL_v6rt2s4yzx","msl000082","freq_resp","","","img/orange_2bandit_a.png","70","img/orange_2bandit_a.png","70","test","","","","","","","","","1","","","","","","","","","","",""
"null","","2191522","SARL_v6rt2s4yzx","msl000082","fixation","","","img/fixation.png","null","","","test","","","","","","","","","","","","","","","","","","","",""
"412","","2191939","SARL_v6rt2s4yzx","msl000082","freq","","","img/orange_2bandit_a2.png","70","","70","test","1","","","square","circle","10","10","10","1","1","","","","","","","","","",""
"null","","2192332","SARL_v6rt2s4yzx","msl000082","freq_resp","","","img/orange_2bandit_a.png","70","img/orange_2bandit_a.png","70","test","","","","","","","","","1","","","","","","","","","","",""
"null","","2192488","SARL_v6rt2s4yzx","msl000082","fixation","","","img/fixation.png","null","","","test","","","","","","","","","","","","","","","","","","","",""
"354","","2192847","SARL_v6rt2s4yzx","msl000082","freq","","","img/orange_2bandit_a2.png","70","","70","test","1","","","square","circle","11","11","11","1","1","","","","","","","","","",""
"null","","2193298","SARL_v6rt2s4yzx","msl000082","freq_resp","","","img/orange_2bandit_a.png","70","img/orange_2bandit_a.png","70","test","","","","","","","","","1","","","","","","","","","","",""
"null","","2193453","SARL_v6rt2s4yzx","msl000082","fixation","","","img/fixation.png","null","","","test","","","","","","","","","","","","","","","","","","","",""
"359","","2193817","SARL_v6rt2s4yzx","msl000082","freq","","","img/orange_2bandit_a2.png","70","","70","test","1","","","square","circle","12","12","12","1","1","","","","","","","","","",""
"null","","2194264","SARL_v6rt2s4yzx","msl000082","freq_resp","","","img/orange_2bandit_a.png","70","img/orange_2bandit_a.png","70","test","","","","","","","","","1","","","","","","","","","","",""
"null","","2194420","SARL_v6rt2s4yzx","msl000082","fixation","","","img/fixation.png","null","","","test","","","","","","","","","","","","","","","","","","","",""
"338","","2194761","SARL_v6rt2s4yzx","msl000082","infreq","","","img/green_2bandit_a2.png","70","","68","test","0","","","square","circle","13","13","13","1","0.9230769230769231","","","","","","","","","",""
"null","","2195229","SARL_v6rt2s4yzx","msl000082","infreq_resp","","","img/green_2bandit_a.png","70","img/green_2bandit_a.png","68","test","","","","","","","","","1","","","","","","","","","","",""
"null","","2195384","SARL_v6rt2s4yzx","msl000082","fixation","","","img/fixation.png","null","","","test","","","","","","","","","","","","","","","","","","","",""
"421","","2195811","SARL_v6rt2s4yzx","msl000082","freq","","","img/orange_2bandit_a2.png","70","","70","test","1","","","square","circle","14","14","14","1","0.9285714285714286","","","","","","","","","",""
"null","","2196195","SARL_v6rt2s4yzx","msl000082","freq_resp","","","img/orange_2bandit_a.png","70","img/orange_2bandit_a.png","70","test","","","","","","","","","1","","","","","","","","","","",""
"null","","2196352","SARL_v6rt2s4yzx","msl000082","fixation","","","img/fixation.png","null","","","test","","","","","","","","","","","","","","","","","","","",""
"392","","2196748","SARL_v6rt2s4yzx","msl000082","freq","","","img/orange_2bandit_a2.png","70","","70","test","1","","","square","circle","15","15","15","1","0.9333333333333333","","","","","","","","","",""
"null","","2197161","SARL_v6rt2s4yzx","msl000082","freq_resp","","","img/orange_2bandit_a.png","70","img/orange_2bandit_a.png","70","test","","","","","","","","","1","","","","","","","","","","",""
"null","","2197318","SARL_v6rt2s4yzx","msl000082","fixation","","","img/fixation.png","null","","","test","","","","","","","","","","","","","","","","","","","",""
"373","","2197695","SARL_v6rt2s4yzx","msl000082","freq","","","img/orange_2bandit_a2.png","70","","70","test","1","","","square","circle","16","16","16","1","0.9375","","","","","","","","","",""
"null","","2198128","SARL_v6rt2s4yzx","msl000082","freq_resp","","","img/orange_2bandit_a.png","70","img/orange_2bandit_a.png","70","test","","","","","","","","","1","","","","","","","","","","",""
"null","","2198284","SARL_v6rt2s4yzx","msl000082","fixation","","","img/fixation.png","null","","","test","","","","","","","","","","","","","","","","","","","",""
"367","","2198657","SARL_v6rt2s4yzx","msl000082","freq","","","img/orange_2bandit_a2.png","70","","70","test","1","","","square","circle","17","17","17","1","0.9411764705882353","","","","","","","","","",""
"null","","2199096","SARL_v6rt2s4yzx","msl000082","freq_resp","","","img/orange_2bandit_a.png","70","img/orange_2bandit_a.png","70","test","","","","","","","","","1","","","","","","","","","","",""
"null","","2199251","SARL_v6rt2s4yzx","msl000082","fixation","","","img/fixation.png","null","","","test","","","","","","","","","","","","","","","","","","","",""
"327","","2199583","SARL_v6rt2s4yzx","msl000082","freq","","","img/orange_2bandit_a2.png","70","","70","test","1","","","square","circle","18","18","18","1","0.9444444444444444","","","","","","","","","",""
"null","","2200063","SARL_v6rt2s4yzx","msl000082","freq_resp","","","img/orange_2bandit_a.png","70","img/orange_2bandit_a.png","70","test","","","","","","","","","1","","","","","","","","","","",""
"null","","2200219","SARL_v6rt2s4yzx","msl000082","fixation","","","img/fixation.png","null","","","test","","","","","","","","","","","","","","","","","","","",""
"440","","2200665","SARL_v6rt2s4yzx","msl000082","infreq","","","img/green_2bandit_a2.png","68","","68","test","1","","","square","circle","19","19","19","1","0.9473684210526315","","","","","","","","","",""
"null","","2201031","SARL_v6rt2s4yzx","msl000082","infreq_resp","","","img/green_2bandit_a.png","68","img/green_2bandit_a.png","68","test","","","","","","","","","1","","","","","","","","","","",""
"null","","2201186","SARL_v6rt2s4yzx","msl000082","fixation","","","img/fixation.png","null","","","test","","","","","","","","","","","","","","","","","","","",""
"542","","2201733","SARL_v6rt2s4yzx","msl000082","freq","","","img/orange_2bandit_a2.png","70","","70","test","1","","","square","circle","20","20","20","1","0.95","","","","","","","","","",""
"null","","2201997","SARL_v6rt2s4yzx","msl000082","freq_resp","","","img/orange_2bandit_a.png","70","img/orange_2bandit_a.png","70","test","","","","","","","","","1","","","","","","","","","","",""
"null","","2202153","SARL_v6rt2s4yzx","msl000082","fixation","","","img/fixation.png","null","","","test","","","","","","","","","","","","","","","","","","","",""
"436","","2202594","SARL_v6rt2s4yzx","msl000082","freq","","","img/orange_2bandit_a2.png","70","","70","test","1","","","square","circle","21","21","21","1","0.9523809523809523","","","","","","","","","",""
"null","","2202965","SARL_v6rt2s4yzx","msl000082","freq_resp","","","img/orange_2bandit_a.png","70","img/orange_2bandit_a.png","70","test","","","","","","","","","1","","","","","","","","","","",""
"null","","2203120","SARL_v6rt2s4yzx","msl000082","fixation","","","img/fixation.png","null","","","test","","","","","","","","","","","","","","","","","","","",""
"343","","2203468","SARL_v6rt2s4yzx","msl000082","freq","","","img/orange_2bandit_a2.png","70","","70","test","1","","","square","circle","22","22","22","1","0.9545454545454546","","","","","","","","","",""
"null","","2203930","SARL_v6rt2s4yzx","msl000082","freq_resp","","","img/orange_2bandit_a.png","70","img/orange_2bandit_a.png","70","test","","","","","","","","","1","","","","","","","","","","",""
"null","","2204086","SARL_v6rt2s4yzx","msl000082","fixation","","","img/fixation.png","null","","","test","","","","","","","","","","","","","","","","","","","",""
"373","","2204464","SARL_v6rt2s4yzx","msl000082","freq","","","img/orange_2bandit_a2.png","70","","70","test","1","","","square","circle","23","23","23","1","0.9565217391304348","","","","","","","","","",""
"null","","2204897","SARL_v6rt2s4yzx","msl000082","freq_resp","","","img/orange_2bandit_a.png","70","img/orange_2bandit_a.png","70","test","","","","","","","","","1","","","","","","","","","","",""
"null","","2205052","SARL_v6rt2s4yzx","msl000082","fixation","","","img/fixation.png","null","","","test","","","","","","","","","","","","","","","","","","","",""
"478","","2205533","SARL_v6rt2s4yzx","msl000082","freq","","","img/orange_2bandit_a2.png","70","","70","test","1","","","square","circle","24","24","24","1","0.9583333333333334","","","","","","","","","",""
"null","","2205861","SARL_v6rt2s4yzx","msl000082","freq_resp","","","img/orange_2bandit_a.png","70","img/orange_2bandit_a.png","70","test","","","","","","","","","1","","","","","","","","","","",""
"null","","2206016","SARL_v6rt2s4yzx","msl000082","fixation","","","img/fixation.png","null","","","test","","","","","","","","","","","","","","","","","","","",""
"396","","2206418","SARL_v6rt2s4yzx","msl000082","freq","","","img/orange_2bandit_a2.png","70","","70","test","1","","","square","circle","25","25","25","1","0.96","","","","","","","","","",""
"null","","2206829","SARL_v6rt2s4yzx","msl000082","freq_resp","","","img/orange_2bandit_a.png","70","img/orange_2bandit_a.png","70","test","","","","","","","","","1","","","","","","","","","","",""
"null","","2206985","SARL_v6rt2s4yzx","msl000082","fixation","","","img/fixation.png","null","","","test","","","","","","","","","","","","","","","","","","","",""
"591","","2207582","SARL_v6rt2s4yzx","msl000082","rl","","","img/black_2bandit_a2.png","75","","0","test","","","0","square","circle","26","","0","1","","75","0.2","0.8","0.6220599270017567","0.8","0.2","0.2","circle","1","0"
"null","","2208337","SARL_v6rt2s4yzx","msl000082","feedback","","","img/boo_R_a.png","null","","na","test","","","","","","","","","1","","75","0.2","0.8","","","","0.2","","1",""
"429","","2208772","SARL_v6rt2s4yzx","msl000082","freq","","","img/orange_2bandit_a2.png","70","","70","test","1","","","square","circle","27","26","1","2","0.9615384615384616","","","","","","","","","",""
"null","","2209148","SARL_v6rt2s4yzx","msl000082","freq_resp","","","img/orange_2bandit_a.png","70","img/orange_2bandit_a.png","70","test","","","","","","","","","2","","","","","","","","","","",""
"null","","2209304","SARL_v6rt2s4yzx","msl000082","fixation","","","img/fixation.png","null","","","test","","","","","","","","","","","","","","","","","","","",""
"352","","2209661","SARL_v6rt2s4yzx","msl000082","freq","","","img/orange_2bandit_a2.png","70","","70","test","1","","","square","circle","28","27","2","2","0.9629629629629629","","","","","","","","","",""
"null","","2210115","SARL_v6rt2s4yzx","msl000082","freq_resp","","","img/orange_2bandit_a.png","70","img/orange_2bandit_a.png","70","test","","","","","","","","","2","","","","","","","","","","",""
"null","","2210272","SARL_v6rt2s4yzx","msl000082","fixation","","","img/fixation.png","null","","","test","","","","","","","","","","","","","","","","","","","",""
"337","","2210614","SARL_v6rt2s4yzx","msl000082","freq","","","img/orange_2bandit_a2.png","70","","70","test","1","","","square","circle","29","28","3","2","0.9642857142857143","","","","","","","","","",""
"null","","2211083","SARL_v6rt2s4yzx","msl000082","freq_resp","","","img/orange_2bandit_a.png","70","img/orange_2bandit_a.png","70","test","","","","","","","","","2","","","","","","","","","","",""
"null","","2211239","SARL_v6rt2s4yzx","msl000082","fixation","","","img/fixation.png","null","","","test","","","","","","","","","","","","","","","","","","","",""
"323","","2211568","SARL_v6rt2s4yzx","msl000082","freq","","","img/orange_2bandit_a2.png","70","","70","test","1","","","square","circle","30","29","4","2","0.9655172413793104","","","","","","","","","",""
"null","","2212050","SARL_v6rt2s4yzx","msl000082","freq_resp","","","img/orange_2bandit_a.png","70","img/orange_2bandit_a.png","70","test","","","","","","","","","2","","","","","","","","","","",""
"null","","2212205","SARL_v6rt2s4yzx","msl000082","fixation","","","img/fixation.png","null","","","test","","","","","","","","","","","","","","","","","","","",""
"347","","2212557","SARL_v6rt2s4yzx","msl000082","freq","","","img/orange_2bandit_a2.png","70","","70","test","1","","","square","circle","31","30","5","2","0.9666666666666667","","","","","","","","","",""
"null","","2213016","SARL_v6rt2s4yzx","msl000082","freq_resp","","","img/orange_2bandit_a.png","70","img/orange_2bandit_a.png","70","test","","","","","","","","","2","","","","","","","","","","",""
"null","","2213172","SARL_v6rt2s4yzx","msl000082","fixation","","","img/fixation.png","null","","","test","","","","","","","","","","","","","","","","","","","",""
"336","","2213512","SARL_v6rt2s4yzx","msl000082","freq","","","img/orange_2bandit_a2.png","70","","70","test","1","","","square","circle","32","31","6","2","0.967741935483871","","","","","","","","","",""
"null","","2213982","SARL_v6rt2s4yzx","msl000082","freq_resp","","","img/orange_2bandit_a.png","70","img/orange_2bandit_a.png","70","test","","","","","","","","","2","","","","","","","","","","",""
"null","","2214138","SARL_v6rt2s4yzx","msl000082","fixation","","","img/fixation.png","null","","","test","","","","","","","","","","","","","","","","","","","",""
"473","","2214614","SARL_v6rt2s4yzx","msl000082","infreq","","","img/green_2bandit_a2.png","68","","68","test","1","","","square","circle","33","32","7","2","0.96875","","","","","","","","","",""
"null","","2214947","SARL_v6rt2s4yzx","msl000082","infreq_resp","","","img/green_2bandit_a.png","68","img/green_2bandit_a.png","68","test","","","","","","","","","2","","","","","","","","","","",""
"null","","2215102","SARL_v6rt2s4yzx","msl000082","fixation","","","img/fixation.png","null","","","test","","","","","","","","","","","","","","","","","","","",""
"357","","2215464","SARL_v6rt2s4yzx","msl000082","freq","","","img/orange_2bandit_a2.png","70","","70","test","1","","","square","circle","34","33","8","2","0.9696969696969697","","","","","","","","","",""
"null","","2215913","SARL_v6rt2s4yzx","msl000082","freq_resp","","","img/orange_2bandit_a.png","70","img/orange_2bandit_a.png","70","test","","","","","","","","","2","","","","","","","","","","",""
"null","","2216068","SARL_v6rt2s4yzx","msl000082","fixation","","","img/fixation.png","null","","","test","","","","","","","","","","","","","","","","","","","",""
"336","","2216408","SARL_v6rt2s4yzx","msl000082","freq","","","img/orange_2bandit_a2.png","70","","70","test","1","","","square","circle","35","34","9","2","0.9705882352941176","","","","","","","","","",""
"null","","2216877","SARL_v6rt2s4yzx","msl000082","freq_resp","","","img/orange_2bandit_a.png","70","img/orange_2bandit_a.png","70","test","","","","","","","","","2","","","","","","","","","","",""
"null","","2217033","SARL_v6rt2s4yzx","msl000082","fixation","","","img/fixation.png","null","","","test","","","","","","","","","","","","","","","","","","","",""
"334","","2217373","SARL_v6rt2s4yzx","msl000082","freq","","","img/orange_2bandit_a2.png","70","","70","test","1","","","square","circle","36","35","10","2","0.9714285714285714","","","","","","","","","",""
"null","","2217845","SARL_v6rt2s4yzx","msl000082","freq_resp","","","img/orange_2bandit_a.png","70","img/orange_2bandit_a.png","70","test","","","","","","","","","2","","","","","","","","","","",""
"null","","2218001","SARL_v6rt2s4yzx","msl000082","fixation","","","img/fixation.png","null","","","test","","","","","","","","","","","","","","","","","","","",""
"361","","2218367","SARL_v6rt2s4yzx","msl000082","freq","","","img/orange_2bandit_a2.png","70","","70","test","1","","","square","circle","37","36","11","2","0.9722222222222222","","","","","","","","","",""
"null","","2218812","SARL_v6rt2s4yzx","msl000082","freq_resp","","","img/orange_2bandit_a.png","70","img/orange_2bandit_a.png","70","test","","","","","","","","","2","","","","","","","","","","",""
"null","","2218969","SARL_v6rt2s4yzx","msl000082","fixation","","","img/fixation.png","null","","","test","","","","","","","","","","","","","","","","","","","",""
"356","","2219331","SARL_v6rt2s4yzx","msl000082","freq","","","img/orange_2bandit_a2.png","70","","70","test","1","","","square","circle","38","37","12","2","0.972972972972973","","","","","","","","","",""
"null","","2219780","SARL_v6rt2s4yzx","msl000082","freq_resp","","","img/orange_2bandit_a.png","70","img/orange_2bandit_a.png","70","test","","","","","","","","","2","","","","","","","","","","",""
"null","","2219936","SARL_v6rt2s4yzx","msl000082","fixation","","","img/fixation.png","null","","","test","","","","","","","","","","","","","","","","","","","",""
"338","","2220279","SARL_v6rt2s4yzx","msl000082","freq","","","img/orange_2bandit_a2.png","70","","70","test","1","","","square","circle","39","38","13","2","0.9736842105263158","","","","","","","","","",""
"null","","2220747","SARL_v6rt2s4yzx","msl000082","freq_resp","","","img/orange_2bandit_a.png","70","img/orange_2bandit_a.png","70","test","","","","","","","","","2","","","","","","","","","","",""
"null","","2220903","SARL_v6rt2s4yzx","msl000082","fixation","","","img/fixation.png","null","","","test","","","","","","","","","","","","","","","","","","","",""
"361","","2221269","SARL_v6rt2s4yzx","msl000082","freq","","","img/orange_2bandit_a2.png","70","","70","test","1","","","square","circle","40","39","14","2","0.9743589743589743","","","","","","","","","",""
"null","","2221713","SARL_v6rt2s4yzx","msl000082","freq_resp","","","img/orange_2bandit_a.png","70","img/orange_2bandit_a.png","70","test","","","","","","","","","2","","","","","","","","","","",""
"null","","2221868","SARL_v6rt2s4yzx","msl000082","fixation","","","img/fixation.png","null","","","test","","","","","","","","","","","","","","","","","","","",""
"330","","2222205","SARL_v6rt2s4yzx","msl000082","freq","","","img/orange_2bandit_a2.png","70","","70","test","1","","","square","circle","41","40","15","2","0.975","","","","","","","","","",""
"null","","2222681","SARL_v6rt2s4yzx","msl000082","freq_resp","","","img/orange_2bandit_a.png","70","img/orange_2bandit_a.png","70","test","","","","","","","","","2","","","","","","","","","","",""
"null","","2222835","SARL_v6rt2s4yzx","msl000082","fixation","","","img/fixation.png","null","","","test","","","","","","","","","","","","","","","","","","","",""
"486","","2223326","SARL_v6rt2s4yzx","msl000082","infreq","","","img/green_2bandit_a2.png","70","","68","test","0","","","square","circle","42","41","16","2","0.9512195121951219","","","","","","","","","",""
"null","","2223644","SARL_v6rt2s4yzx","msl000082","infreq_resp","","","img/green_2bandit_a.png","70","img/green_2bandit_a.png","68","test","","","","","","","","","2","","","","","","","","","","",""
"null","","2223801","SARL_v6rt2s4yzx","msl000082","fixation","","","img/fixation.png","null","","","test","","","","","","","","","","","","","","","","","","","",""
"450","","2224256","SARL_v6rt2s4yzx","msl000082","freq","","","img/orange_2bandit_a2.png","70","","70","test","1","","","square","circle","43","42","17","2","0.9523809523809523","","","","","","","","","",""
"null","","2224612","SARL_v6rt2s4yzx","msl000082","freq_resp","","","img/orange_2bandit_a.png","70","img/orange_2bandit_a.png","70","test","","","","","","","","","2","","","","","","","","","","",""
"null","","2224768","SARL_v6rt2s4yzx","msl000082","fixation","","","img/fixation.png","null","","","test","","","","","","","","","","","","","","","","","","","",""
"476","","2225250","SARL_v6rt2s4yzx","msl000082","freq","","","img/orange_2bandit_a2.png","70","","70","test","1","","","square","circle","44","43","18","2","0.9534883720930233","","","","","","","","","",""
"null","","2225579","SARL_v6rt2s4yzx","msl000082","freq_resp","","","img/orange_2bandit_a.png","70","img/orange_2bandit_a.png","70","test","","","","","","","","","2","","","","","","","","","","",""
"null","","2225735","SARL_v6rt2s4yzx","msl000082","fixation","","","img/fixation.png","null","","","test","","","","","","","","","","","","","","","","","","","",""
"529","","2226269","SARL_v6rt2s4yzx","msl000082","freq","","","img/orange_2bandit_a2.png","70","","70","test","1","","","square","circle","45","44","19","2","0.9545454545454546","","","","","","","","","",""
"null","","2226546","SARL_v6rt2s4yzx","msl000082","freq_resp","","","img/orange_2bandit_a.png","70","img/orange_2bandit_a.png","70","test","","","","","","","","","2","","","","","","","","","","",""
"null","","2226701","SARL_v6rt2s4yzx","msl000082","fixation","","","img/fixation.png","null","","","test","","","","","","","","","","","","","","","","","","","",""
"406","","2227112","SARL_v6rt2s4yzx","msl000082","infreq","","","img/green_2bandit_a2.png","68","","68","test","1","","","square","circle","46","45","20","2","0.9555555555555556","","","","","","","","","",""
"null","","2227513","SARL_v6rt2s4yzx","msl000082","infreq_resp","","","img/green_2bandit_a.png","68","img/green_2bandit_a.png","68","test","","","","","","","","","2","","","","","","","","","","",""
"null","","2227667","SARL_v6rt2s4yzx","msl000082","fixation","","","img/fixation.png","null","","","test","","","","","","","","","","","","","","","","","","","",""
"248","","2227921","SARL_v6rt2s4yzx","msl000082","freq","","","img/orange_2bandit_a2.png","70","","70","test","1","","","square","circle","47","46","21","2","0.9565217391304348","","","","","","","","","",""
"null","","2228479","SARL_v6rt2s4yzx","msl000082","freq_resp","","","img/orange_2bandit_a.png","70","img/orange_2bandit_a.png","70","test","","","","","","","","","2","","","","","","","","","","",""
"null","","2228634","SARL_v6rt2s4yzx","msl000082","fixation","","","img/fixation.png","null","","","test","","","","","","","","","","","","","","","","","","","",""
"423","","2229061","SARL_v6rt2s4yzx","msl000082","infreq","","","img/green_2bandit_a2.png","68","","68","test","1","","","square","circle","48","47","22","2","0.9574468085106383","","","","","","","","","",""
"null","","2229443","SARL_v6rt2s4yzx","msl000082","infreq_resp","","","img/green_2bandit_a.png","68","img/green_2bandit_a.png","68","test","","","","","","","","","2","","","","","","","","","","",""
"null","","2229599","SARL_v6rt2s4yzx","msl000082","fixation","","","img/fixation.png","null","","","test","","","","","","","","","","","","","","","","","","","",""
"326","","2229929","SARL_v6rt2s4yzx","msl000082","freq","","","img/orange_2bandit_a2.png","70","","70","test","1","","","square","circle","49","48","23","2","0.9583333333333334","","","","","","","","","",""
"null","","2230409","SARL_v6rt2s4yzx","msl000082","freq_resp","","","img/orange_2bandit_a.png","70","img/orange_2bandit_a.png","70","test","","","","","","","","","2","","","","","","","","","","",""
"null","","2230565","SARL_v6rt2s4yzx","msl000082","fixation","","","img/fixation.png","null","","","test","","","","","","","","","","","","","","","","","","","",""
"356","","2230926","SARL_v6rt2s4yzx","msl000082","freq","","","img/orange_2bandit_a2.png","70","","70","test","1","","","square","circle","50","49","24","2","0.9591836734693877","","","","","","","","","",""
"null","","2231377","SARL_v6rt2s4yzx","msl000082","freq_resp","","","img/orange_2bandit_a.png","70","img/orange_2bandit_a.png","70","test","","","","","","","","","2","","","","","","","","","","",""
"null","","2231533","SARL_v6rt2s4yzx","msl000082","fixation","","","img/fixation.png","null","","","test","","","","","","","","","","","","","","","","","","","",""
"312","","2231850","SARL_v6rt2s4yzx","msl000082","freq","","","img/orange_2bandit_a2.png","70","","70","test","1","","","square","circle","51","50","25","2","0.96","","","","","","","","","",""
"null","","2232344","SARL_v6rt2s4yzx","msl000082","freq_resp","","","img/orange_2bandit_a.png","70","img/orange_2bandit_a.png","70","test","","","","","","","","","2","","","","","","","","","","",""
"null","","2232499","SARL_v6rt2s4yzx","msl000082","fixation","","","img/fixation.png","null","","","test","","","","","","","","","","","","","","","","","","","",""
"807","","2233310","SARL_v6rt2s4yzx","msl000082","rl","","","img/black_2bandit_a2.png","74","","0","test","","","1","square","circle","52","","0","2","","74","0.2","0.8","0.10114189578392274","0.8","0.2","0.8","square","2","0"
"null","","2234066","SARL_v6rt2s4yzx","msl000082","feedback","","","img/yay_L_a.png","null","","na","test","","","","","","","","","2","","74","0.2","0.8","","","","0.8","","2",""
"541","","2234611","SARL_v6rt2s4yzx","msl000082","freq","","","img/orange_2bandit_a2.png","70","","70","test","1","","","square","circle","53","51","1","3","0.9607843137254902","","","","","","","","","",""
"null","","2234875","SARL_v6rt2s4yzx","msl000082","freq_resp","","","img/orange_2bandit_a.png","70","img/orange_2bandit_a.png","70","test","","","","","","","","","3","","","","","","","","","","",""
"null","","2235031","SARL_v6rt2s4yzx","msl000082","fixation","","","img/fixation.png","null","","","test","","","","","","","","","","","","","","","","","","","",""
"424","","2235461","SARL_v6rt2s4yzx","msl000082","infreq","","","img/green_2bandit_a2.png","68","","68","test","1","","","square","circle","54","52","2","3","0.9615384615384616","","","","","","","","","",""
"null","","2235842","SARL_v6rt2s4yzx","msl000082","infreq_resp","","","img/green_2bandit_a.png","68","img/green_2bandit_a.png","68","test","","","","","","","","","3","","","","","","","","","","",""
"null","","2235998","SARL_v6rt2s4yzx","msl000082","fixation","","","img/fixation.png","null","","","test","","","","","","","","","","","","","","","","","","","",""
"495","","2236499","SARL_v6rt2s4yzx","msl000082","freq","","","img/orange_2bandit_a2.png","68","","70","test","0","","","square","circle","55","53","3","3","0.9433962264150944","","","","","","","","","",""
"null","","2236809","SARL_v6rt2s4yzx","msl000082","freq_resp","","","img/orange_2bandit_a.png","68","img/orange_2bandit_a.png","70","test","","","","","","","","","3","","","","","","","","","","",""
"null","","2236964","SARL_v6rt2s4yzx","msl000082","fixation","","","img/fixation.png","null","","","test","","","","","","","","","","","","","","","","","","","",""
"428","","2237397","SARL_v6rt2s4yzx","msl000082","freq","","","img/orange_2bandit_a2.png","70","","70","test","1","","","square","circle","56","54","4","3","0.9444444444444444","","","","","","","","","",""
"null","","2237775","SARL_v6rt2s4yzx","msl000082","freq_resp","","","img/orange_2bandit_a.png","70","img/orange_2bandit_a.png","70","test","","","","","","","","","3","","","","","","","","","","",""
"null","","2237931","SARL_v6rt2s4yzx","msl000082","fixation","","","img/fixation.png","null","","","test","","","","","","","","","","","","","","","","","","","",""
"402","","2238337","SARL_v6rt2s4yzx","msl000082","freq","","","img/orange_2bandit_a2.png","70","","70","test","1","","","square","circle","57","55","5","3","0.9454545454545454","","","","","","","","","",""
"null","","2238741","SARL_v6rt2s4yzx","msl000082","freq_resp","","","img/orange_2bandit_a.png","70","img/orange_2bandit_a.png","70","test","","","","","","","","","3","","","","","","","","","","",""
"null","","2238896","SARL_v6rt2s4yzx","msl000082","fixation","","","img/fixation.png","null","","","test","","","","","","","","","","","","","","","","","","","",""
"385","","2239285","SARL_v6rt2s4yzx","msl000082","freq","","","img/orange_2bandit_a2.png","70","","70","test","1","","","square","circle","58","56","6","3","0.9464285714285714","","","","","","","","","",""
"null","","2239706","SARL_v6rt2s4yzx","msl000082","freq_resp","","","img/orange_2bandit_a.png","70","img/orange_2bandit_a.png","70","test","","","","","","","","","3","","","","","","","","","","",""
"null","","2239862","SARL_v6rt2s4yzx","msl000082","fixation","","","img/fixation.png","null","","","test","","","","","","","","","","","","","","","","","","","",""
"402","","2240268","SARL_v6rt2s4yzx","msl000082","freq","","","img/orange_2bandit_a2.png","70","","70","test","1","","","square","circle","59","57","7","3","0.9473684210526315","","","","","","","","","",""
"null","","2240672","SARL_v6rt2s4yzx","msl000082","freq_resp","","","img/orange_2bandit_a.png","70","img/orange_2bandit_a.png","70","test","","","","","","","","","3","","","","","","","","","","",""
"null","","2240827","SARL_v6rt2s4yzx","msl000082","fixation","","","img/fixation.png","null","","","test","","","","","","","","","","","","","","","","","","","",""
"362","","2241193","SARL_v6rt2s4yzx","msl000082","freq","","","img/orange_2bandit_a2.png","70","","70","test","1","","","square","circle","60","58","8","3","0.9482758620689655","","","","","","","","","",""
"null","","2241638","SARL_v6rt2s4yzx","msl000082","freq_resp","","","img/orange_2bandit_a.png","70","img/orange_2bandit_a.png","70","test","","","","","","","","","3","","","","","","","","","","",""
"null","","2241794","SARL_v6rt2s4yzx","msl000082","fixation","","","img/fixation.png","null","","","test","","","","","","","","","","","","","","","","","","","",""
"334","","2242132","SARL_v6rt2s4yzx","msl000082","freq","","","img/orange_2bandit_a2.png","70","","70","test","1","","","square","circle","61","59","9","3","0.9491525423728814","","","","","","","","","",""
"null","","2242602","SARL_v6rt2s4yzx","msl000082","freq_resp","","","img/orange_2bandit_a.png","70","img/orange_2bandit_a.png","70","test","","","","","","","","","3","","","","","","","","","","",""
"null","","2242759","SARL_v6rt2s4yzx","msl000082","fixation","","","img/fixation.png","null","","","test","","","","","","","","","","","","","","","","","","","",""
"307","","2243071","SARL_v6rt2s4yzx","msl000082","freq","","","img/orange_2bandit_a2.png","70","","70","test","1","","","square","circle","62","60","10","3","0.95","","","","","","","","","",""
"null","","2243569","SARL_v6rt2s4yzx","msl000082","freq_resp","","","img/orange_2bandit_a.png","70","img/orange_2bandit_a.png","70","test","","","","","","","","","3","","","","","","","","","","",""
"null","","2243725","SARL_v6rt2s4yzx","msl000082","fixation","","","img/fixation.png","null","","","test","","","","","","","","","","","","","","","","","","","",""
"290","","2244020","SARL_v6rt2s4yzx","msl000082","freq","","","img/orange_2bandit_a2.png","70","","70","test","1","","","square","circle","63","61","11","3","0.9508196721311475","","","","","","","","","",""
"null","","2244537","SARL_v6rt2s4yzx","msl000082","freq_resp","","","img/orange_2bandit_a.png","70","img/orange_2bandit_a.png","70","test","","","","","","","","","3","","","","","","","","","","",""
"null","","2244692","SARL_v6rt2s4yzx","msl000082","fixation","","","img/fixation.png","null","","","test","","","","","","","","","","","","","","","","","","","",""
"327","","2245023","SARL_v6rt2s4yzx","msl000082","freq","","","img/orange_2bandit_a2.png","70","","70","test","1","","","square","circle","64","62","12","3","0.9516129032258065","","","","","","","","","",""
"null","","2245503","SARL_v6rt2s4yzx","msl000082","freq_resp","","","img/orange_2bandit_a.png","70","img/orange_2bandit_a.png","70","test","","","","","","","","","3","","","","","","","","","","",""
"null","","2245658","SARL_v6rt2s4yzx","msl000082","fixation","","","img/fixation.png","null","","","test","","","","","","","","","","","","","","","","","","","",""
"264","","2245928","SARL_v6rt2s4yzx","msl000082","infreq","","","img/green_2bandit_a2.png","70","","68","test","0","","","square","circle","65","63","13","3","0.9365079365079365","","","","","","","","","",""
"null","","2246471","SARL_v6rt2s4yzx","msl000082","infreq_resp","","","img/green_2bandit_a.png","70","img/green_2bandit_a.png","68","test","","","","","","","","","3","","","","","","","","","","",""
"null","","2246626","SARL_v6rt2s4yzx","msl000082","fixation","","","img/fixation.png","null","","","test","","","","","","","","","","","","","","","","","","","",""
"291","","2246922","SARL_v6rt2s4yzx","msl000082","freq","","","img/orange_2bandit_a2.png","70","","70","test","1","","","square","circle","66","64","14","3","0.9375","","","","","","","","","",""
"null","","2247437","SARL_v6rt2s4yzx","msl000082","freq_resp","","","img/orange_2bandit_a.png","70","img/orange_2bandit_a.png","70","test","","","","","","","","","3","","","","","","","","","","",""
"null","","2247592","SARL_v6rt2s4yzx","msl000082","fixation","","","img/fixation.png","null","","","test","","","","","","","","","","","","","","","","","","","",""
"312","","2247909","SARL_v6rt2s4yzx","msl000082","freq","","","img/orange_2bandit_a2.png","70","","70","test","1","","","square","circle","67","65","15","3","0.9384615384615385","","","","","","","","","",""
"null","","2248401","SARL_v6rt2s4yzx","msl000082","freq_resp","","","img/orange_2bandit_a.png","70","img/orange_2bandit_a.png","70","test","","","","","","","","","3","","","","","","","","","","",""
"null","","2248558","SARL_v6rt2s4yzx","msl000082","fixation","","","img/fixation.png","null","","","test","","","","","","","","","","","","","","","","","","","",""
"286","","2248849","SARL_v6rt2s4yzx","msl000082","freq","","","img/orange_2bandit_a2.png","70","","70","test","1","","","square","circle","68","66","16","3","0.9393939393939394","","","","","","","","","",""
"null","","2249368","SARL_v6rt2s4yzx","msl000082","freq_resp","","","img/orange_2bandit_a.png","70","img/orange_2bandit_a.png","70","test","","","","","","","","","3","","","","","","","","","","",""
"null","","2249523","SARL_v6rt2s4yzx","msl000082","fixation","","","img/fixation.png","null","","","test","","","","","","","","","","","","","","","","","","","",""
"347","","2249874","SARL_v6rt2s4yzx","msl000082","freq","","","img/orange_2bandit_a2.png","70","","70","test","1","","","square","circle","69","67","17","3","0.9402985074626866","","","","","","","","","",""
"null","","2250333","SARL_v6rt2s4yzx","msl000082","freq_resp","","","img/orange_2bandit_a.png","70","img/orange_2bandit_a.png","70","test","","","","","","","","","3","","","","","","","","","","",""
"null","","2250490","SARL_v6rt2s4yzx","msl000082","fixation","","","img/fixation.png","null","","","test","","","","","","","","","","","","","","","","","","","",""
"312","","2250807","SARL_v6rt2s4yzx","msl000082","freq","","","img/orange_2bandit_a2.png","70","","70","test","1","","","square","circle","70","68","18","3","0.9411764705882353","","","","","","","","","",""
"null","","2251300","SARL_v6rt2s4yzx","msl000082","freq_resp","","","img/orange_2bandit_a.png","70","img/orange_2bandit_a.png","70","test","","","","","","","","","3","","","","","","","","","","",""
"null","","2251457","SARL_v6rt2s4yzx","msl000082","fixation","","","img/fixation.png","null","","","test","","","","","","","","","","","","","","","","","","","",""
"390","","2251852","SARL_v6rt2s4yzx","msl000082","infreq","","","img/green_2bandit_a2.png","68","","68","test","1","","","square","circle","71","69","19","3","0.9420289855072463","","","","","","","","","",""
"null","","2252268","SARL_v6rt2s4yzx","msl000082","infreq_resp","","","img/green_2bandit_a.png","68","img/green_2bandit_a.png","68","test","","","","","","","","","3","","","","","","","","","","",""
"null","","2252424","SARL_v6rt2s4yzx","msl000082","fixation","","","img/fixation.png","null","","","test","","","","","","","","","","","","","","","","","","","",""
"331","","2252760","SARL_v6rt2s4yzx","msl000082","freq","","","img/orange_2bandit_a2.png","70","","70","test","1","","","square","circle","72","70","20","3","0.9428571428571428","","","","","","","","","",""
"null","","2253235","SARL_v6rt2s4yzx","msl000082","freq_resp","","","img/orange_2bandit_a.png","70","img/orange_2bandit_a.png","70","test","","","","","","","","","3","","","","","","","","","","",""
"null","","2253389","SARL_v6rt2s4yzx","msl000082","fixation","","","img/fixation.png","null","","","test","","","","","","","","","","","","","","","","","","","",""
"261","","2253656","SARL_v6rt2s4yzx","msl000082","freq","","","img/orange_2bandit_a2.png","70","","70","test","1","","","square","circle","73","71","21","3","0.9436619718309859","","","","","","","","","",""
"null","","2254200","SARL_v6rt2s4yzx","msl000082","freq_resp","","","img/orange_2bandit_a.png","70","img/orange_2bandit_a.png","70","test","","","","","","","","","3","","","","","","","","","","",""
"null","","2254356","SARL_v6rt2s4yzx","msl000082","fixation","","","img/fixation.png","null","","","test","","","","","","","","","","","","","","","","","","","",""
"311","","2254672","SARL_v6rt2s4yzx","msl000082","freq","","","img/orange_2bandit_a2.png","70","","70","test","1","","","square","circle","74","72","22","3","0.9444444444444444","","","","","","","","","",""
"null","","2255167","SARL_v6rt2s4yzx","msl000082","freq_resp","","","img/orange_2bandit_a.png","70","img/orange_2bandit_a.png","70","test","","","","","","","","","3","","","","","","","","","","",""
"null","","2255322","SARL_v6rt2s4yzx","msl000082","fixation","","","img/fixation.png","null","","","test","","","","","","","","","","","","","","","","","","","",""
"335","","2255662","SARL_v6rt2s4yzx","msl000082","freq","","","img/orange_2bandit_a2.png","70","","70","test","1","","","square","circle","75","73","23","3","0.9452054794520548","","","","","","","","","",""
"null","","2256133","SARL_v6rt2s4yzx","msl000082","freq_resp","","","img/orange_2bandit_a.png","70","img/orange_2bandit_a.png","70","test","","","","","","","","","3","","","","","","","","","","",""
"null","","2256290","SARL_v6rt2s4yzx","msl000082","fixation","","","img/fixation.png","null","","","test","","","","","","","","","","","","","","","","","","","",""
"368","","2256663","SARL_v6rt2s4yzx","msl000082","freq","","","img/orange_2bandit_a2.png","70","","70","test","1","","","square","circle","76","74","24","3","0.9459459459459459","","","","","","","","","",""
"null","","2257101","SARL_v6rt2s4yzx","msl000082","freq_resp","","","img/orange_2bandit_a.png","70","img/orange_2bandit_a.png","70","test","","","","","","","","","3","","","","","","","","","","",""
"null","","2257256","SARL_v6rt2s4yzx","msl000082","fixation","","","img/fixation.png","null","","","test","","","","","","","","","","","","","","","","","","","",""
"374","","2257635","SARL_v6rt2s4yzx","msl000082","freq","","","img/orange_2bandit_a2.png","70","","70","test","1","","","square","circle","77","75","25","3","0.9466666666666667","","","","","","","","","",""
"null","","2258067","SARL_v6rt2s4yzx","msl000082","freq_resp","","","img/orange_2bandit_a.png","70","img/orange_2bandit_a.png","70","test","","","","","","","","","3","","","","","","","","","","",""
"null","","2258223","SARL_v6rt2s4yzx","msl000082","fixation","","","img/fixation.png","null","","","test","","","","","","","","","","","","","","","","","","","",""
"445","","2258673","SARL_v6rt2s4yzx","msl000082","freq","","","img/orange_2bandit_a2.png","70","","70","test","1","","","square","circle","78","76","26","3","0.9473684210526315","","","","","","","","","",""
"null","","2259035","SARL_v6rt2s4yzx","msl000082","freq_resp","","","img/orange_2bandit_a.png","70","img/orange_2bandit_a.png","70","test","","","","","","","","","3","","","","","","","","","","",""
"null","","2259192","SARL_v6rt2s4yzx","msl000082","fixation","","","img/fixation.png","null","","","test","","","","","","","","","","","","","","","","","","","",""
"319","","2259515","SARL_v6rt2s4yzx","msl000082","freq","","","img/orange_2bandit_a2.png","70","","70","test","1","","","square","circle","79","77","27","3","0.948051948051948","","","","","","","","","",""
"null","","2260001","SARL_v6rt2s4yzx","msl000082","freq_resp","","","img/orange_2bandit_a.png","70","img/orange_2bandit_a.png","70","test","","","","","","","","","3","","","","","","","","","","",""
"null","","2260157","SARL_v6rt2s4yzx","msl000082","fixation","","","img/fixation.png","null","","","test","","","","","","","","","","","","","","","","","","","",""
"450","","2260611","SARL_v6rt2s4yzx","msl000082","rl","","","img/black_2bandit_a2.png","74","","0","test","","","0","square","circle","80","","0","3","","74","0.2","0.8","0.8637171646611147","0.8","0.2","0.8","square","3","0"
"null","","2261368","SARL_v6rt2s4yzx","msl000082","feedback","","","img/boo_L_a.png","null","","na","test","","","","","","","","","3","","74","0.2","0.8","","","","0.8","","3",""
"503","","2261875","SARL_v6rt2s4yzx","msl000082","freq","","","img/orange_2bandit_a2.png","70","","70","test","1","","","square","circle","81","78","1","4","0.9487179487179487","","","","","","","","","",""
"null","","2262178","SARL_v6rt2s4yzx","msl000082","freq_resp","","","img/orange_2bandit_a.png","70","img/orange_2bandit_a.png","70","test","","","","","","","","","4","","","","","","","","","","",""
"null","","2262333","SARL_v6rt2s4yzx","msl000082","fixation","","","img/fixation.png","null","","","test","","","","","","","","","","","","","","","","","","","",""
"409","","2262746","SARL_v6rt2s4yzx","msl000082","infreq","","","img/green_2bandit_a2.png","68","","68","test","1","","","square","circle","82","79","2","4","0.9493670886075949","","","","","","","","","",""
"null","","2263144","SARL_v6rt2s4yzx","msl000082","infreq_resp","","","img/green_2bandit_a.png","68","img/green_2bandit_a.png","68","test","","","","","","","","","4","","","","","","","","","","",""
"null","","2263300","SARL_v6rt2s4yzx","msl000082","fixation","","","img/fixation.png","null","","","test","","","","","","","","","","","","","","","","","","","",""
"343","","2263647","SARL_v6rt2s4yzx","msl000082","freq","","","img/orange_2bandit_a2.png","70","","70","test","1","","","square","circle","83","80","3","4","0.95","","","","","","","","","",""
"null","","2264110","SARL_v6rt2s4yzx","msl000082","freq_resp","","","img/orange_2bandit_a.png","70","img/orange_2bandit_a.png","70","test","","","","","","","","","4","","","","","","","","","","",""
"null","","2264266","SARL_v6rt2s4yzx","msl000082","fixation","","","img/fixation.png","null","","","test","","","","","","","","","","","","","","","","","","","",""
"287","","2264559","SARL_v6rt2s4yzx","msl000082","freq","","","img/orange_2bandit_a2.png","70","","70","test","1","","","square","circle","84","81","4","4","0.9506172839506173","","","","","","","","","",""
"null","","2265076","SARL_v6rt2s4yzx","msl000082","freq_resp","","","img/orange_2bandit_a.png","70","img/orange_2bandit_a.png","70","test","","","","","","","","","4","","","","","","","","","","",""
"null","","2265232","SARL_v6rt2s4yzx","msl000082","fixation","","","img/fixation.png","null","","","test","","","","","","","","","","","","","","","","","","","",""
"284","","2265520","SARL_v6rt2s4yzx","msl000082","freq","","","img/orange_2bandit_a2.png","70","","70","test","1","","","square","circle","85","82","5","4","0.9512195121951219","","","","","","","","","",""
"null","","2266042","SARL_v6rt2s4yzx","msl000082","freq_resp","","","img/orange_2bandit_a.png","70","img/orange_2bandit_a.png","70","test","","","","","","","","","4","","","","","","","","","","",""
"null","","2266197","SARL_v6rt2s4yzx","msl000082","fixation","","","img/fixation.png","null","","","test","","","","","","","","","","","","","","","","","","","",""
"315","","2266517","SARL_v6rt2s4yzx","msl000082","freq","","","img/orange_2bandit_a2.png","70","","70","test","1","","","square","circle","86","83","6","4","0.9518072289156626","","","","","","","","","",""
"null","","2267008","SARL_v6rt2s4yzx","msl000082","freq_resp","","","img/orange_2bandit_a.png","70","img/orange_2bandit_a.png","70","test","","","","","","","","","4","","","","","","","","","","",""
"null","","2267164","SARL_v6rt2s4yzx","msl000082","fixation","","","img/fixation.png","null","","","test","","","","","","","","","","","","","","","","","","","",""
"263","","2267432","SARL_v6rt2s4yzx","msl000082","freq","","","img/orange_2bandit_a2.png","70","","70","test","1","","","square","circle","87","84","7","4","0.9523809523809523","","","","","","","","","",""
"null","","2267975","SARL_v6rt2s4yzx","msl000082","freq_resp","","","img/orange_2bandit_a.png","70","img/orange_2bandit_a.png","70","test","","","","","","","","","4","","","","","","","","","","",""
"null","","2268131","SARL_v6rt2s4yzx","msl000082","fixation","","","img/fixation.png","null","","","test","","","","","","","","","","","","","","","","","","","",""
"304","","2268439","SARL_v6rt2s4yzx","msl000082","freq","","","img/orange_2bandit_a2.png","70","","70","test","1","","","square","circle","88","85","8","4","0.9529411764705882","","","","","","","","","",""
"null","","2268941","SARL_v6rt2s4yzx","msl000082","freq_resp","","","img/orange_2bandit_a.png","70","img/orange_2bandit_a.png","70","test","","","","","","","","","4","","","","","","","","","","",""
"null","","2269097","SARL_v6rt2s4yzx","msl000082","fixation","","","img/fixation.png","null","","","test","","","","","","","","","","","","","","","","","","","",""
"263","","2269364","SARL_v6rt2s4yzx","msl000082","freq","","","img/orange_2bandit_a2.png","70","","70","test","1","","","square","circle","89","86","9","4","0.9534883720930233","","","","","","","","","",""
"null","","2269907","SARL_v6rt2s4yzx","msl000082","freq_resp","","","img/orange_2bandit_a.png","70","img/orange_2bandit_a.png","70","test","","","","","","","","","4","","","","","","","","","","",""
"null","","2270061","SARL_v6rt2s4yzx","msl000082","fixation","","","img/fixation.png","null","","","test","","","","","","","","","","","","","","","","","","","",""
"327","","2270393","SARL_v6rt2s4yzx","msl000082","freq","","","img/orange_2bandit_a2.png","70","","70","test","1","","","square","circle","90","87","10","4","0.9540229885057471","","","","","","","","","",""
"null","","2270871","SARL_v6rt2s4yzx","msl000082","freq_resp","","","img/orange_2bandit_a.png","70","img/orange_2bandit_a.png","70","test","","","","","","","","","4","","","","","","","","","","",""
"null","","2271027","SARL_v6rt2s4yzx","msl000082","fixation","","","img/fixation.png","null","","","test","","","","","","","","","","","","","","","","","","","",""
"304","","2271337","SARL_v6rt2s4yzx","msl000082","freq","","","img/orange_2bandit_a2.png","70","","70","test","1","","","square","circle","91","88","11","4","0.9545454545454546","","","","","","","","","",""
"null","","2271838","SARL_v6rt2s4yzx","msl000082","freq_resp","","","img/orange_2bandit_a.png","70","img/orange_2bandit_a.png","70","test","","","","","","","","","4","","","","","","","","","","",""
"null","","2271995","SARL_v6rt2s4yzx","msl000082","fixation","","","img/fixation.png","null","","","test","","","","","","","","","","","","","","","","","","","",""
"259","","2272259","SARL_v6rt2s4yzx","msl000082","freq","","","img/orange_2bandit_a2.png","70","","70","test","1","","","square","circle","92","89","12","4","0.9550561797752809","","","","","","","","","",""
"null","","2272807","SARL_v6rt2s4yzx","msl000082","freq_resp","","","img/orange_2bandit_a.png","70","img/orange_2bandit_a.png","70","test","","","","","","","","","4","","","","","","","","","","",""
"null","","2272962","SARL_v6rt2s4yzx","msl000082","fixation","","","img/fixation.png","null","","","test","","","","","","","","","","","","","","","","","","","",""
"214","","2273179","SARL_v6rt2s4yzx","msl000082","freq","","","img/orange_2bandit_a2.png","70","","70","test","1","","","square","circle","93","90","13","4","0.9555555555555556","","","","","","","","","",""
"null","","2273771","SARL_v6rt2s4yzx","msl000082","freq_resp","","","img/orange_2bandit_a.png","70","img/orange_2bandit_a.png","70","test","","","","","","","","","4","","","","","","","","","","",""
"null","","2273927","SARL_v6rt2s4yzx","msl000082","fixation","","","img/fixation.png","null","","","test","","","","","","","","","","","","","","","","","","","",""
"165","","2274097","SARL_v6rt2s4yzx","msl000082","freq","","","img/orange_2bandit_a2.png","70","","70","test","1","","","square","circle","94","91","14","4","0.9560439560439561","","","","","","","","","",""
"null","","2274737","SARL_v6rt2s4yzx","msl000082","freq_resp","","","img/orange_2bandit_a.png","70","img/orange_2bandit_a.png","70","test","","","","","","","","","4","","","","","","","","","","",""
"null","","2274892","SARL_v6rt2s4yzx","msl000082","fixation","","","img/fixation.png","null","","","test","","","","","","","","","","","","","","","","","","","",""
"218","","2275115","SARL_v6rt2s4yzx","msl000082","freq","","","img/orange_2bandit_a2.png","70","","70","test","1","","","square","circle","95","92","15","4","0.9565217391304348","","","","","","","","","",""
"null","","2275704","SARL_v6rt2s4yzx","msl000082","freq_resp","","","img/orange_2bandit_a.png","70","img/orange_2bandit_a.png","70","test","","","","","","","","","4","","","","","","","","","","",""
"null","","2275860","SARL_v6rt2s4yzx","msl000082","fixation","","","img/fixation.png","null","","","test","","","","","","","","","","","","","","","","","","","",""
"170","","2276036","SARL_v6rt2s4yzx","msl000082","infreq","","","img/green_2bandit_a2.png","70","","68","test","0","","","square","circle","96","93","16","4","0.946236559139785","","","","","","","","","",""
"null","","2276673","SARL_v6rt2s4yzx","msl000082","infreq_resp","","","img/green_2bandit_a.png","70","img/green_2bandit_a.png","68","test","","","","","","","","","4","","","","","","","","","","",""
"null","","2276828","SARL_v6rt2s4yzx","msl000082","fixation","","","img/fixation.png","null","","","test","","","","","","","","","","","","","","","","","","","",""
"146","","2276980","SARL_v6rt2s4yzx","msl000082","freq","","","img/orange_2bandit_a2.png","70","","70","test","1","","","square","circle","97","94","17","4","0.9468085106382979","","","","","","","","","",""
"null","","2277640","SARL_v6rt2s4yzx","msl000082","freq_resp","","","img/orange_2bandit_a.png","70","img/orange_2bandit_a.png","70","test","","","","","","","","","4","","","","","","","","","","",""
"null","","2277795","SARL_v6rt2s4yzx","msl000082","fixation","","","img/fixation.png","null","","","test","","","","","","","","","","","","","","","","","","","",""
"265","","2278064","SARL_v6rt2s4yzx","msl000082","freq","","","img/orange_2bandit_a2.png","70","","70","test","1","","","square","circle","98","95","18","4","0.9473684210526315","","","","","","","","","",""
"null","","2278604","SARL_v6rt2s4yzx","msl000082","freq_resp","","","img/orange_2bandit_a.png","70","img/orange_2bandit_a.png","70","test","","","","","","","","","4","","","","","","","","","","",""
"null","","2278760","SARL_v6rt2s4yzx","msl000082","fixation","","","img/fixation.png","null","","","test","","","","","","","","","","","","","","","","","","","",""
"285","","2279049","SARL_v6rt2s4yzx","msl000082","freq","","","img/orange_2bandit_a2.png","70","","70","test","1","","","square","circle","99","96","19","4","0.9479166666666666","","","","","","","","","",""
"null","","2279570","SARL_v6rt2s4yzx","msl000082","freq_resp","","","img/orange_2bandit_a.png","70","img/orange_2bandit_a.png","70","test","","","","","","","","","4","","","","","","","","","","",""
"null","","2279725","SARL_v6rt2s4yzx","msl000082","fixation","","","img/fixation.png","null","","","test","","","","","","","","","","","","","","","","","","","",""
"265","","2279996","SARL_v6rt2s4yzx","msl000082","freq","","","img/orange_2bandit_a2.png","70","","70","test","1","","","square","circle","100","97","20","4","0.9484536082474226","","","","","","","","","",""
"null","","2280536","SARL_v6rt2s4yzx","msl000082","freq_resp","","","img/orange_2bandit_a.png","70","img/orange_2bandit_a.png","70","test","","","","","","","","","4","","","","","","","","","","",""
"null","","2280692","SARL_v6rt2s4yzx","msl000082","fixation","","","img/fixation.png","null","","","test","","","","","","","","","","","","","","","","","","","",""
"255","","2280952","SARL_v6rt2s4yzx","msl000082","freq","","","img/orange_2bandit_a2.png","70","","70","test","1","","","square","circle","101","98","21","4","0.9489795918367347","","","","","","","","","",""
"null","","2281503","SARL_v6rt2s4yzx","msl000082","freq_resp","","","img/orange_2bandit_a.png","70","img/orange_2bandit_a.png","70","test","","","","","","","","","4","","","","","","","","","","",""
"null","","2281659","SARL_v6rt2s4yzx","msl000082","fixation","","","img/fixation.png","null","","","test","","","","","","","","","","","","","","","","","","","",""
"210","","2281874","SARL_v6rt2s4yzx","msl000082","freq","","","img/orange_2bandit_a2.png","70","","70","test","1","","","square","circle","102","99","22","4","0.9494949494949495","","","","","","","","","",""
"null","","2282470","SARL_v6rt2s4yzx","msl000082","freq_resp","","","img/orange_2bandit_a.png","70","img/orange_2bandit_a.png","70","test","","","","","","","","","4","","","","","","","","","","",""
"null","","2282626","SARL_v6rt2s4yzx","msl000082","fixation","","","img/fixation.png","null","","","test","","","","","","","","","","","","","","","","","","","",""
"259","","2282889","SARL_v6rt2s4yzx","msl000082","freq","","","img/orange_2bandit_a2.png","70","","70","test","1","","","square","circle","103","100","23","4","0.95","","","","","","","","","",""
"null","","2283436","SARL_v6rt2s4yzx","msl000082","freq_resp","","","img/orange_2bandit_a.png","70","img/orange_2bandit_a.png","70","test","","","","","","","","","4","","","","","","","","","","",""
"null","","2283591","SARL_v6rt2s4yzx","msl000082","fixation","","","img/fixation.png","null","","","test","","","","","","","","","","","","","","","","","","","",""
"231","","2283827","SARL_v6rt2s4yzx","msl000082","freq","","","img/orange_2bandit_a2.png","70","","70","test","1","","","square","circle","104","101","24","4","0.9504950495049505","","","","","","","","","",""
"null","","2284401","SARL_v6rt2s4yzx","msl000082","freq_resp","","","img/orange_2bandit_a.png","70","img/orange_2bandit_a.png","70","test","","","","","","","","","4","","","","","","","","","","",""
"null","","2284557","SARL_v6rt2s4yzx","msl000082","fixation","","","img/fixation.png","null","","","test","","","","","","","","","","","","","","","","","","","",""
"285","","2284847","SARL_v6rt2s4yzx","msl000082","freq","","","img/orange_2bandit_a2.png","70","","70","test","1","","","square","circle","105","102","25","4","0.9509803921568627","","","","","","","","","",""
"null","","2285368","SARL_v6rt2s4yzx","msl000082","freq_resp","","","img/orange_2bandit_a.png","70","img/orange_2bandit_a.png","70","test","","","","","","","","","4","","","","","","","","","","",""
"null","","2285525","SARL_v6rt2s4yzx","msl000082","fixation","","","img/fixation.png","null","","","test","","","","","","","","","","","","","","","","","","","",""
"166","","2285694","SARL_v6rt2s4yzx","msl000082","freq","","","img/orange_2bandit_a2.png","70","","70","test","1","","","square","circle","106","103","26","4","0.9514563106796117","","","","","","","","","",""
"null","","2286334","SARL_v6rt2s4yzx","msl000082","freq_resp","","","img/orange_2bandit_a.png","70","img/orange_2bandit_a.png","70","test","","","","","","","","","4","","","","","","","","","","",""
"null","","2286490","SARL_v6rt2s4yzx","msl000082","fixation","","","img/fixation.png","null","","","test","","","","","","","","","","","","","","","","","","","",""
"176","","2286671","SARL_v6rt2s4yzx","msl000082","freq","","","img/orange_2bandit_a2.png","70","","70","test","1","","","square","circle","107","104","27","4","0.9519230769230769","","","","","","","","","",""
"null","","2287300","SARL_v6rt2s4yzx","msl000082","freq_resp","","","img/orange_2bandit_a.png","70","img/orange_2bandit_a.png","70","test","","","","","","","","","4","","","","","","","","","","",""
"null","","2287456","SARL_v6rt2s4yzx","msl000082","fixation","","","img/fixation.png","null","","","test","","","","","","","","","","","","","","","","","","","",""
"705","","2288166","SARL_v6rt2s4yzx","msl000082","rl","","","img/black_2bandit_a2.png","74","","0","test","","","1","square","circle","108","","0","4","","74","0.2","0.8","0.5354000306817607","0.8","0.2","0.8","square","4","0"
"null","","2288922","SARL_v6rt2s4yzx","msl000082","feedback","","","img/yay_L_a.png","null","","na","test","","","","","","","","","4","","74","0.2","0.8","","","","0.8","","4",""
"414","","2289340","SARL_v6rt2s4yzx","msl000082","freq","","","img/orange_2bandit_a2.png","70","","70","test","1","","","square","circle","109","105","1","5","0.9523809523809523","","","","","","","","","",""
"null","","2289732","SARL_v6rt2s4yzx","msl000082","freq_resp","","","img/orange_2bandit_a.png","70","img/orange_2bandit_a.png","70","test","","","","","","","","","5","","","","","","","","","","",""
"null","","2289887","SARL_v6rt2s4yzx","msl000082","fixation","","","img/fixation.png","null","","","test","","","","","","","","","","","","","","","","","","","",""
"305","","2290198","SARL_v6rt2s4yzx","msl000082","infreq","","","img/green_2bandit_a2.png","70","","68","test","0","","","square","circle","110","106","2","5","0.9433962264150944","","","","","","","","","",""
"null","","2290699","SARL_v6rt2s4yzx","msl000082","infreq_resp","","","img/green_2bandit_a.png","70","img/green_2bandit_a.png","68","test","","","","","","","","","5","","","","","","","","","","",""
"null","","2290855","SARL_v6rt2s4yzx","msl000082","fixation","","","img/fixation.png","null","","","test","","","","","","","","","","","","","","","","","","","",""
"261","","2291121","SARL_v6rt2s4yzx","msl000082","freq","","","img/orange_2bandit_a2.png","70","","70","test","1","","","square","circle","111","107","3","5","0.9439252336448598","","","","","","","","","",""
"null","","2291665","SARL_v6rt2s4yzx","msl000082","freq_resp","","","img/orange_2bandit_a.png","70","img/orange_2bandit_a.png","70","test","","","","","","","","","5","","","","","","","","","","",""
"null","","2291822","SARL_v6rt2s4yzx","msl000082","fixation","","","img/fixation.png","null","","","test","","","","","","","","","","","","","","","","","","","",""
"415","","2292241","SARL_v6rt2s4yzx","msl000082","freq","","","img/orange_2bandit_a2.png","70","","70","test","1","","","square","circle","112","108","4","5","0.9444444444444444","","","","","","","","","",""
"null","","2292631","SARL_v6rt2s4yzx","msl000082","freq_resp","","","img/orange_2bandit_a.png","70","img/orange_2bandit_a.png","70","test","","","","","","","","","5","","","","","","","","","","",""
"null","","2292786","SARL_v6rt2s4yzx","msl000082","fixation","","","img/fixation.png","null","","","test","","","","","","","","","","","","","","","","","","","",""
"265","","2293057","SARL_v6rt2s4yzx","msl000082","freq","","","img/orange_2bandit_a2.png","70","","70","test","1","","","square","circle","113","109","5","5","0.944954128440367","","","","","","","","","",""
"null","","2293597","SARL_v6rt2s4yzx","msl000082","freq_resp","","","img/orange_2bandit_a.png","70","img/orange_2bandit_a.png","70","test","","","","","","","","","5","","","","","","","","","","",""
"null","","2293752","SARL_v6rt2s4yzx","msl000082","fixation","","","img/fixation.png","null","","","test","","","","","","","","","","","","","","","","","","","",""
"284","","2294042","SARL_v6rt2s4yzx","msl000082","freq","","","img/orange_2bandit_a2.png","70","","70","test","1","","","square","circle","114","110","6","5","0.9454545454545454","","","","","","","","","",""
"null","","2294564","SARL_v6rt2s4yzx","msl000082","freq_resp","","","img/orange_2bandit_a.png","70","img/orange_2bandit_a.png","70","test","","","","","","","","","5","","","","","","","","","","",""
"null","","2294719","SARL_v6rt2s4yzx","msl000082","fixation","","","img/fixation.png","null","","","test","","","","","","","","","","","","","","","","","","","",""
"203","","2294928","SARL_v6rt2s4yzx","msl000082","freq","","","img/orange_2bandit_a2.png","70","","70","test","1","","","square","circle","115","111","7","5","0.9459459459459459","","","","","","","","","",""
"null","","2295532","SARL_v6rt2s4yzx","msl000082","freq_resp","","","img/orange_2bandit_a.png","70","img/orange_2bandit_a.png","70","test","","","","","","","","","5","","","","","","","","","","",""
"null","","2295687","SARL_v6rt2s4yzx","msl000082","fixation","","","img/fixation.png","null","","","test","","","","","","","","","","","","","","","","","","","",""
"183","","2295876","SARL_v6rt2s4yzx","msl000082","freq","","","img/orange_2bandit_a2.png","70","","70","test","1","","","square","circle","116","112","8","5","0.9464285714285714","","","","","","","","","",""
"null","","2296499","SARL_v6rt2s4yzx","msl000082","freq_resp","","","img/orange_2bandit_a.png","70","img/orange_2bandit_a.png","70","test","","","","","","","","","5","","","","","","","","","","",""
"null","","2296655","SARL_v6rt2s4yzx","msl000082","fixation","","","img/fixation.png","null","","","test","","","","","","","","","","","","","","","","","","","",""
"145","","2296805","SARL_v6rt2s4yzx","msl000082","freq","","","img/orange_2bandit_a2.png","70","","70","test","1","","","square","circle","117","113","9","5","0.9469026548672567","","","","","","","","","",""
"null","","2297466","SARL_v6rt2s4yzx","msl000082","freq_resp","","","img/orange_2bandit_a.png","70","img/orange_2bandit_a.png","70","test","","","","","","","","","5","","","","","","","","","","",""
"null","","2297622","SARL_v6rt2s4yzx","msl000082","fixation","","","img/fixation.png","null","","","test","","","","","","","","","","","","","","","","","","","",""
"258","","2297887","SARL_v6rt2s4yzx","msl000082","freq","","","img/orange_2bandit_a2.png","70","","70","test","1","","","square","circle","118","114","10","5","0.9473684210526315","","","","","","","","","",""
"null","","2298435","SARL_v6rt2s4yzx","msl000082","freq_resp","","","img/orange_2bandit_a.png","70","img/orange_2bandit_a.png","70","test","","","","","","","","","5","","","","","","","","","","",""
"null","","2298590","SARL_v6rt2s4yzx","msl000082","fixation","","","img/fixation.png","null","","","test","","","","","","","","","","","","","","","","","","","",""
"219","","2298814","SARL_v6rt2s4yzx","msl000082","freq","","","img/orange_2bandit_a2.png","70","","70","test","1","","","square","circle","119","115","11","5","0.9478260869565217","","","","","","","","","",""
"null","","2299400","SARL_v6rt2s4yzx","msl000082","freq_resp","","","img/orange_2bandit_a.png","70","img/orange_2bandit_a.png","70","test","","","","","","","","","5","","","","","","","","","","",""
"null","","2299557","SARL_v6rt2s4yzx","msl000082","fixation","","","img/fixation.png","null","","","test","","","","","","","","","","","","","","","","","","","",""
"228","","2299790","SARL_v6rt2s4yzx","msl000082","freq","","","img/orange_2bandit_a2.png","70","","70","test","1","","","square","circle","120","116","12","5","0.9482758620689655","","","","","","","","","",""
"null","","2300368","SARL_v6rt2s4yzx","msl000082","freq_resp","","","img/orange_2bandit_a.png","70","img/orange_2bandit_a.png","70","test","","","","","","","","","5","","","","","","","","","","",""
"null","","2300523","SARL_v6rt2s4yzx","msl000082","fixation","","","img/fixation.png","null","","","test","","","","","","","","","","","","","","","","","","","",""
"310","","2300838","SARL_v6rt2s4yzx","msl000082","freq","","","img/orange_2bandit_a2.png","70","","70","test","1","","","square","circle","121","117","13","5","0.9487179487179487","","","","","","","","","",""
"null","","2301333","SARL_v6rt2s4yzx","msl000082","freq_resp","","","img/orange_2bandit_a.png","70","img/orange_2bandit_a.png","70","test","","","","","","","","","5","","","","","","","","","","",""
"null","","2301488","SARL_v6rt2s4yzx","msl000082","fixation","","","img/fixation.png","null","","","test","","","","","","","","","","","","","","","","","","","",""
"252","","2301746","SARL_v6rt2s4yzx","msl000082","freq","","","img/orange_2bandit_a2.png","70","","70","test","1","","","square","circle","122","118","14","5","0.9491525423728814","","","","","","","","","",""
"null","","2302299","SARL_v6rt2s4yzx","msl000082","freq_resp","","","img/orange_2bandit_a.png","70","img/orange_2bandit_a.png","70","test","","","","","","","","","5","","","","","","","","","","",""
"null","","2302456","SARL_v6rt2s4yzx","msl000082","fixation","","","img/fixation.png","null","","","test","","","","","","","","","","","","","","","","","","","",""
"253","","2302714","SARL_v6rt2s4yzx","msl000082","freq","","","img/orange_2bandit_a2.png","70","","70","test","1","","","square","circle","123","119","15","5","0.9495798319327731","","","","","","","","","",""
"null","","2303267","SARL_v6rt2s4yzx","msl000082","freq_resp","","","img/orange_2bandit_a.png","70","img/orange_2bandit_a.png","70","test","","","","","","","","","5","","","","","","","","","","",""
"null","","2303423","SARL_v6rt2s4yzx","msl000082","fixation","","","img/fixation.png","null","","","test","","","","","","","","","","","","","","","","","","","",""
"357","","2303785","SARL_v6rt2s4yzx","msl000082","freq","","","img/orange_2bandit_a2.png","70","","70","test","1","","","square","circle","124","120","16","5","0.95","","","","","","","","","",""
"null","","2304234","SARL_v6rt2s4yzx","msl000082","freq_resp","","","img/orange_2bandit_a.png","70","img/orange_2bandit_a.png","70","test","","","","","","","","","5","","","","","","","","","","",""
"null","","2304391","SARL_v6rt2s4yzx","msl000082","fixation","","","img/fixation.png","null","","","test","","","","","","","","","","","","","","","","","","","",""
"418","","2304813","SARL_v6rt2s4yzx","msl000082","infreq","","","img/green_2bandit_a2.png","68","","68","test","1","","","square","circle","125","121","17","5","0.9504132231404959","","","","","","","","","",""
"null","","2305200","SARL_v6rt2s4yzx","msl000082","infreq_resp","","","img/green_2bandit_a.png","68","img/green_2bandit_a.png","68","test","","","","","","","","","5","","","","","","","","","","",""
"null","","2305357","SARL_v6rt2s4yzx","msl000082","fixation","","","img/fixation.png","null","","","test","","","","","","","","","","","","","","","","","","","",""
"320","","2305682","SARL_v6rt2s4yzx","msl000082","freq","","","img/orange_2bandit_a2.png","70","","70","test","1","","","square","circle","126","122","18","5","0.9508196721311475","","","","","","","","","",""
"null","","2306167","SARL_v6rt2s4yzx","msl000082","freq_resp","","","img/orange_2bandit_a.png","70","img/orange_2bandit_a.png","70","test","","","","","","","","","5","","","","","","","","","","",""
"null","","2306322","SARL_v6rt2s4yzx","msl000082","fixation","","","img/fixation.png","null","","","test","","","","","","","","","","","","","","","","","","","",""
"280","","2306607","SARL_v6rt2s4yzx","msl000082","freq","","","img/orange_2bandit_a2.png","70","","70","test","1","","","square","circle","127","123","19","5","0.9512195121951219","","","","","","","","","",""
"null","","2307132","SARL_v6rt2s4yzx","msl000082","freq_resp","","","img/orange_2bandit_a.png","70","img/orange_2bandit_a.png","70","test","","","","","","","","","5","","","","","","","","","","",""
"null","","2307288","SARL_v6rt2s4yzx","msl000082","fixation","","","img/fixation.png","null","","","test","","","","","","","","","","","","","","","","","","","",""
"713","","2308006","SARL_v6rt2s4yzx","msl000082","rl","","","img/black_2bandit_a2.png","75","","0","test","","","0","square","circle","128","","0","5","","75","0.2","0.8","0.878168960844102","0.8","0.2","0.2","circle","5","0"
"null","","2308762","SARL_v6rt2s4yzx","msl000082","feedback","","","img/boo_R_a.png","null","","na","test","","","","","","","","","5","","75","0.2","0.8","","","","0.2","","5",""
"340","","2309108","SARL_v6rt2s4yzx","msl000082","freq","","","img/orange_2bandit_a2.png","70","","70","test","1","","","square","circle","129","124","1","6","0.9516129032258065","","","","","","","","","",""
"null","","2309574","SARL_v6rt2s4yzx","msl000082","freq_resp","","","img/orange_2bandit_a.png","70","img/orange_2bandit_a.png","70","test","","","","","","","","","6","","","","","","","","","","",""
"null","","2309729","SARL_v6rt2s4yzx","msl000082","fixation","","","img/fixation.png","null","","","test","","","","","","","","","","","","","","","","","","","",""
"277","","2310011","SARL_v6rt2s4yzx","msl000082","freq","","","img/orange_2bandit_a2.png","70","","70","test","1","","","square","circle","130","125","2","6","0.952","","","","","","","","","",""
"null","","2310540","SARL_v6rt2s4yzx","msl000082","freq_resp","","","img/orange_2bandit_a.png","70","img/orange_2bandit_a.png","70","test","","","","","","","","","6","","","","","","","","","","",""
"null","","2310695","SARL_v6rt2s4yzx","msl000082","fixation","","","img/fixation.png","null","","","test","","","","","","","","","","","","","","","","","","","",""
"252","","2310954","SARL_v6rt2s4yzx","msl000082","freq","","","img/orange_2bandit_a2.png","70","","70","test","1","","","square","circle","131","126","3","6","0.9523809523809523","","","","","","","","","",""
"null","","2311506","SARL_v6rt2s4yzx","msl000082","freq_resp","","","img/orange_2bandit_a.png","70","img/orange_2bandit_a.png","70","test","","","","","","","","","6","","","","","","","","","","",""
"null","","2311663","SARL_v6rt2s4yzx","msl000082","fixation","","","img/fixation.png","null","","","test","","","","","","","","","","","","","","","","","","","",""
"274","","2311942","SARL_v6rt2s4yzx","msl000082","infreq","","","img/green_2bandit_a2.png","70","","68","test","0","","","square","circle","132","127","4","6","0.9448818897637795","","","","","","","","","",""
"null","","2312474","SARL_v6rt2s4yzx","msl000082","infreq_resp","","","img/green_2bandit_a.png","70","img/green_2bandit_a.png","68","test","","","","","","","","","6","","","","","","","","","","",""
"null","","2312630","SARL_v6rt2s4yzx","msl000082","fixation","","","img/fixation.png","null","","","test","","","","","","","","","","","","","","","","","","","",""
"303","","2312939","SARL_v6rt2s4yzx","msl000082","freq","","","img/orange_2bandit_a2.png","70","","70","test","1","","","square","circle","133","128","5","6","0.9453125","","","","","","","","","",""
"null","","2313442","SARL_v6rt2s4yzx","msl000082","freq_resp","","","img/orange_2bandit_a.png","70","img/orange_2bandit_a.png","70","test","","","","","","","","","6","","","","","","","","","","",""
"null","","2313597","SARL_v6rt2s4yzx","msl000082","fixation","","","img/fixation.png","null","","","test","","","","","","","","","","","","","","","","","","","",""
"157","","2313760","SARL_v6rt2s4yzx","msl000082","freq","","","img/orange_2bandit_a2.png","70","","70","test","1","","","square","circle","134","129","6","6","0.9457364341085271","","","","","","","","","",""
"null","","2314408","SARL_v6rt2s4yzx","msl000082","freq_resp","","","img/orange_2bandit_a.png","70","img/orange_2bandit_a.png","70","test","","","","","","","","","6","","","","","","","","","","",""
"null","","2314565","SARL_v6rt2s4yzx","msl000082","fixation","","","img/fixation.png","null","","","test","","","","","","","","","","","","","","","","","","","",""
"102","","2314673","SARL_v6rt2s4yzx","msl000082","freq","","","img/orange_2bandit_a2.png","70","","70","test","1","","","square","circle","135","130","7","6","0.9461538461538461","","","","","","","","","",""
"null","","2315376","SARL_v6rt2s4yzx","msl000082","freq_resp","","","img/orange_2bandit_a.png","70","img/orange_2bandit_a.png","70","test","","","","","","","","","6","","","","","","","","","","",""
"null","","2315532","SARL_v6rt2s4yzx","msl000082","fixation","","","img/fixation.png","null","","","test","","","","","","","","","","","","","","","","","","","",""
"92","","2315629","SARL_v6rt2s4yzx","msl000082","freq","","","img/orange_2bandit_a2.png","70","","70","test","1","","","square","circle","136","131","8","6","0.9465648854961832","","","","","","","","","",""
"null","","2316344","SARL_v6rt2s4yzx","msl000082","freq_resp","","","img/orange_2bandit_a.png","70","img/orange_2bandit_a.png","70","test","","","","","","","","","6","","","","","","","","","","",""
"null","","2316499","SARL_v6rt2s4yzx","msl000082","fixation","","","img/fixation.png","null","","","test","","","","","","","","","","","","","","","","","","","",""
"124","","2316627","SARL_v6rt2s4yzx","msl000082","freq","","","img/orange_2bandit_a2.png","70","","70","test","1","","","square","circle","137","132","9","6","0.946969696969697","","","","","","","","","",""
"null","","2317309","SARL_v6rt2s4yzx","msl000082","freq_resp","","","img/orange_2bandit_a.png","70","img/orange_2bandit_a.png","70","test","","","","","","","","","6","","","","","","","","","","",""
"null","","2317464","SARL_v6rt2s4yzx","msl000082","fixation","","","img/fixation.png","null","","","test","","","","","","","","","","","","","","","","","","","",""
"147","","2317617","SARL_v6rt2s4yzx","msl000082","infreq","","","img/green_2bandit_a2.png","70","","68","test","0","","","square","circle","138","133","10","6","0.9398496240601504","","","","","","","","","",""
"null","","2318275","SARL_v6rt2s4yzx","msl000082","infreq_resp","","","img/green_2bandit_a.png","70","img/green_2bandit_a.png","68","test","","","","","","","","","6","","","","","","","","","","",""
"null","","2318432","SARL_v6rt2s4yzx","msl000082","fixation","","","img/fixation.png","null","","","test","","","","","","","","","","","","","","","","","","","",""
"344","","2318781","SARL_v6rt2s4yzx","msl000082","freq","","","img/orange_2bandit_a2.png","70","","70","test","1","","","square","circle","139","134","11","6","0.9402985074626866","","","","","","","","","",""
"null","","2319243","SARL_v6rt2s4yzx","msl000082","freq_resp","","","img/orange_2bandit_a.png","70","img/orange_2bandit_a.png","70","test","","","","","","","","","6","","","","","","","","","","",""
"null","","2319398","SARL_v6rt2s4yzx","msl000082","fixation","","","img/fixation.png","null","","","test","","","","","","","","","","","","","","","","","","","",""
"311","","2319714","SARL_v6rt2s4yzx","msl000082","freq","","","img/orange_2bandit_a2.png","70","","70","test","1","","","square","circle","140","135","12","6","0.9407407407407408","","","","","","","","","",""
"null","","2320210","SARL_v6rt2s4yzx","msl000082","freq_resp","","","img/orange_2bandit_a.png","70","img/orange_2bandit_a.png","70","test","","","","","","","","","6","","","","","","","","","","",""
"null","","2320366","SARL_v6rt2s4yzx","msl000082","fixation","","","img/fixation.png","null","","","test","","","","","","","","","","","","","","","","","","","",""
"250","","2320619","SARL_v6rt2s4yzx","msl000082","freq","","","img/orange_2bandit_a2.png","70","","70","test","1","","","square","circle","141","136","13","6","0.9411764705882353","","","","","","","","","",""
"null","","2321176","SARL_v6rt2s4yzx","msl000082","freq_resp","","","img/orange_2bandit_a.png","70","img/orange_2bandit_a.png","70","test","","","","","","","","","6","","","","","","","","","","",""
"null","","2321332","SARL_v6rt2s4yzx","msl000082","fixation","","","img/fixation.png","null","","","test","","","","","","","","","","","","","","","","","","","",""
"276","","2321613","SARL_v6rt2s4yzx","msl000082","freq","","","img/orange_2bandit_a2.png","70","","70","test","1","","","square","circle","142","137","14","6","0.9416058394160584","","","","","","","","","",""
"null","","2322143","SARL_v6rt2s4yzx","msl000082","freq_resp","","","img/orange_2bandit_a.png","70","img/orange_2bandit_a.png","70","test","","","","","","","","","6","","","","","","","","","","",""
"null","","2322299","SARL_v6rt2s4yzx","msl000082","fixation","","","img/fixation.png","null","","","test","","","","","","","","","","","","","","","","","","","",""
"257","","2322561","SARL_v6rt2s4yzx","msl000082","freq","","","img/orange_2bandit_a2.png","70","","70","test","1","","","square","circle","143","138","15","6","0.9420289855072463","","","","","","","","","",""
"null","","2323110","SARL_v6rt2s4yzx","msl000082","freq_resp","","","img/orange_2bandit_a.png","70","img/orange_2bandit_a.png","70","test","","","","","","","","","6","","","","","","","","","","",""
"null","","2323266","SARL_v6rt2s4yzx","msl000082","fixation","","","img/fixation.png","null","","","test","","","","","","","","","","","","","","","","","","","",""
"236","","2323505","SARL_v6rt2s4yzx","msl000082","freq","","","img/orange_2bandit_a2.png","70","","70","test","1","","","square","circle","144","139","16","6","0.9424460431654677","","","","","","","","","",""
"null","","2324075","SARL_v6rt2s4yzx","msl000082","freq_resp","","","img/orange_2bandit_a.png","70","img/orange_2bandit_a.png","70","test","","","","","","","","","6","","","","","","","","","","",""
"null","","2324230","SARL_v6rt2s4yzx","msl000082","fixation","","","img/fixation.png","null","","","test","","","","","","","","","","","","","","","","","","","",""
"221","","2324456","SARL_v6rt2s4yzx","msl000082","freq","","","img/orange_2bandit_a2.png","70","","70","test","1","","","square","circle","145","140","17","6","0.9428571428571428","","","","","","","","","",""
"null","","2325041","SARL_v6rt2s4yzx","msl000082","freq_resp","","","img/orange_2bandit_a.png","70","img/orange_2bandit_a.png","70","test","","","","","","","","","6","","","","","","","","","","",""
"null","","2325196","SARL_v6rt2s4yzx","msl000082","fixation","","","img/fixation.png","null","","","test","","","","","","","","","","","","","","","","","","","",""
"142","","2325343","SARL_v6rt2s4yzx","msl000082","freq","","","img/orange_2bandit_a2.png","70","","70","test","1","","","square","circle","146","141","18","6","0.9432624113475178","","","","","","","","","",""
"null","","2326007","SARL_v6rt2s4yzx","msl000082","freq_resp","","","img/orange_2bandit_a.png","70","img/orange_2bandit_a.png","70","test","","","","","","","","","6","","","","","","","","","","",""
"null","","2326164","SARL_v6rt2s4yzx","msl000082","fixation","","","img/fixation.png","null","","","test","","","","","","","","","","","","","","","","","","","",""
"291","","2326459","SARL_v6rt2s4yzx","msl000082","freq","","","img/orange_2bandit_a2.png","70","","70","test","1","","","square","circle","147","142","19","6","0.9436619718309859","","","","","","","","","",""
"null","","2326974","SARL_v6rt2s4yzx","msl000082","freq_resp","","","img/orange_2bandit_a.png","70","img/orange_2bandit_a.png","70","test","","","","","","","","","6","","","","","","","","","","",""
