"rt","responses","time_elapsed","subject","demoID","trialType","rlType","attType","stimulus","key_press","stim","corrresp","phase","corr","pracCounter","reward","bandOne","bandTwo","trialNum","attentionNum","attentionRunNum","blockNum","performance","bandChosen","circleVal","squareVal","coin","bandOneVal","bandTwoVal","pReward","shapeChosen","rlNum","badFlag"
"100778","{""Q0"":""msl000087""}","100803","SARL_v63vmvzctf","msl000087","","","","","","","","","","","","","","","","","","","","","","","","","","","",""
"13556","","114366","SARL_v63vmvzctf","msl000087","","","","","","","","","","","","","","","","","","","","","","","","","","","",""
"","","116338","SARL_v63vmvzctf","msl000087","fullscreen","fullscreen","fullscreen","","","","","","","","","","","","","","","","","","","","","","","","",""
"73642","","189986","SARL_v63vmvzctf","msl000087","","","","","","","","","","","","","","","","","","","","","","","","","","","",""
"null","","190793","SARL_v63vmvzctf","msl000087","freqPrac","","","img/orange_2bandit_a2.png","null","img/orange_2bandit_a2.png","70","prac","0","1","","","","","","","","","","","","","","","","","",""
"null","","191800","SARL_v63vmvzctf","msl000087","feedback","","","img/tooSlow.png","null","","na","prac","","","","","","","","","","","","","","","","","","","",""
"null","","191956","SARL_v63vmvzctf","msl000087","fixation","","","img/fixation.png","null","","","prac","","","","","","","","","","","","","","","","","","","",""
"748","","192709","SARL_v63vmvzctf","msl000087","infreqPrac","","","img/green_2bandit_a2.png","68","img/green_2bandit_a2.png","68","prac","1","1","","","","","","","","","","","","","","","","","",""
"748","","192767","SARL_v63vmvzctf","msl000087","infreqPrac_resp","","","img/green_2bandit_a.png","68","img/green_2bandit_a.png","68","prac","","","","","","","","","","","","","","","","","","","",""
"null","","192922","SARL_v63vmvzctf","msl000087","fixation","","","img/fixation.png","null","","","prac","","","","","","","","","","","","","","","","","","","",""
"595","","193523","SARL_v63vmvzctf","msl000087","freqPrac","","","img/orange_2bandit_a2.png","70","img/orange_2bandit_a2.png","70","prac","1","1","","","","","","","","","","","","","","","","","",""
"595","","193733","SARL_v63vmvzctf","msl000087","freqPrac_resp","","","img/orange_2bandit_a.png","70","img/orange_2bandit_a.png","70","prac","","","","","","","","","","","","","","","","","","","",""
"null","","193888","SARL_v63vmvzctf","msl000087","fixation","","","img/fixation.png","null","","","prac","","","","","","","","","","","","","","","","","","","",""
"432","","194326","SARL_v63vmvzctf","msl000087","infreqPrac","","","img/green_2bandit_a2.png","68","img/green_2bandit_a2.png","68","prac","1","1","","","","","","","","","","","","","","","","","",""
"432","","194700","SARL_v63vmvzctf","msl000087","infreqPrac_resp","","","img/green_2bandit_a.png","68","img/green_2bandit_a.png","68","prac","","","","","","","","","","","","","","","","","","","",""
"null","","194856","SARL_v63vmvzctf","msl000087","fixation","","","img/fixation.png","null","","","prac","","","","","","","","","","","","","","","","","","","",""
"343","","195204","SARL_v63vmvzctf","msl000087","infreqPrac","","","img/green_2bandit_a2.png","68","img/green_2bandit_a2.png","68","prac","1","1","","","","","","","","","","","","","","","","","",""
"343","","195667","SARL_v63vmvzctf","msl000087","infreqPrac_resp","","","img/green_2bandit_a.png","68","img/green_2bandit_a.png","68","prac","","","","","","","","","","","","","","","","","","","",""
"null","","195823","SARL_v63vmvzctf","msl000087","fixation","","","img/fixation.png","null","","","prac","","","","","","","","","","","","","","","","","","","",""
"339","","196167","SARL_v63vmvzctf","msl000087","infreqPrac","","","img/green_2bandit_a2.png","68","img/green_2bandit_a2.png","68","prac","1","1","","","","","","","","","","","","","","","","","",""
"339","","196633","SARL_v63vmvzctf","msl000087","infreqPrac_resp","","","img/green_2bandit_a.png","68","img/green_2bandit_a.png","68","prac","","","","","","","","","","","","","","","","","","","",""
"null","","196788","SARL_v63vmvzctf","msl000087","fixation","","","img/fixation.png","null","","","prac","","","","","","","","","","","","","","","","","","","",""
"394","","197186","SARL_v63vmvzctf","msl000087","freqPrac","","","img/orange_2bandit_a2.png","70","img/orange_2bandit_a2.png","70","prac","1","1","","","","","","","","","","","","","","","","","",""
"394","","197598","SARL_v63vmvzctf","msl000087","freqPrac_resp","","","img/orange_2bandit_a.png","70","img/orange_2bandit_a.png","70","prac","","","","","","","","","","","","","","","","","","","",""
"null","","197753","SARL_v63vmvzctf","msl000087","fixation","","","img/fixation.png","null","","","prac","","","","","","","","","","","","","","","","","","","",""
"458","","198216","SARL_v63vmvzctf","msl000087","infreqPrac","","","img/green_2bandit_a2.png","68","img/green_2bandit_a2.png","68","prac","1","1","","","","","","","","","","","","","","","","","",""
"458","","198564","SARL_v63vmvzctf","msl000087","infreqPrac_resp","","","img/green_2bandit_a.png","68","img/green_2bandit_a.png","68","prac","","","","","","","","","","","","","","","","","","","",""
"null","","198719","SARL_v63vmvzctf","msl000087","fixation","","","img/fixation.png","null","","","prac","","","","","","","","","","","","","","","","","","","",""
"481","","199204","SARL_v63vmvzctf","msl000087","freqPrac","","","img/orange_2bandit_a2.png","70","img/orange_2bandit_a2.png","70","prac","1","1","","","","","","","","","","","","","","","","","",""
"481","","199529","SARL_v63vmvzctf","msl000087","freqPrac_resp","","","img/orange_2bandit_a.png","70","img/orange_2bandit_a.png","70","prac","","","","","","","","","","","","","","","","","","","",""
"null","","199685","SARL_v63vmvzctf","msl000087","fixation","","","img/fixation.png","null","","","prac","","","","","","","","","","","","","","","","","","","",""
"398","","200086","SARL_v63vmvzctf","msl000087","freqPrac","","","img/orange_2bandit_a2.png","70","img/orange_2bandit_a2.png","70","prac","1","1","","","","","","","","","","","","","","","","","",""
"398","","200494","SARL_v63vmvzctf","msl000087","freqPrac_resp","","","img/orange_2bandit_a.png","70","img/orange_2bandit_a.png","70","prac","","","","","","","","","","","","","","","","","","","",""
"null","","200650","SARL_v63vmvzctf","msl000087","fixation","","","img/fixation.png","null","","","prac","","","","","","","","","","","","","","","","","","","",""
"32363","","233019","SARL_v63vmvzctf","msl000087","","","","","","","","prac","","","","","","","","","","","","","","","","","","","",""
"878","","233903","SARL_v63vmvzctf","msl000087","rlPractice","","","img/black_2bandit_a2.png","74","img/black_2bandit_a2.png","","prac","","","75","","","","","","","","","","","","","","","","",""
"null","","234659","SARL_v63vmvzctf","msl000087","feedback","","","img/boo_L_a.png","null","","na","prac","","","","","","","","","","","","","","","","","","","",""
"null","","234815","SARL_v63vmvzctf","msl000087","fixation","","","img/fixation.png","null","","","prac","","","","","","","","","","","","","","","","","","","",""
"400","","235220","SARL_v63vmvzctf","msl000087","rlPractice","","","img/black_2bandit_a2.png","75","img/black_2bandit_a2.png","","prac","","","75","","","","","","","","","","","","","","","","",""
"null","","235977","SARL_v63vmvzctf","msl000087","feedback","","","img/yay_R_a.png","null","","na","prac","","","","","","","","","","","","","","","","","","","",""
"null","","236131","SARL_v63vmvzctf","msl000087","fixation","","","img/fixation.png","null","","","prac","","","","","","","","","","","","","","","","","","","",""
"317","","236454","SARL_v63vmvzctf","msl000087","rlPractice","","","img/black_2bandit_a2.png","75","img/black_2bandit_a2.png","","prac","","","75","","","","","","","","","","","","","","","","",""
"null","","237209","SARL_v63vmvzctf","msl000087","feedback","","","img/yay_R_a.png","null","","na","prac","","","","","","","","","","","","","","","","","","","",""
"null","","237366","SARL_v63vmvzctf","msl000087","fixation","","","img/fixation.png","null","","","prac","","","","","","","","","","","","","","","","","","","",""
"336","","237707","SARL_v63vmvzctf","msl000087","rlPractice","","","img/black_2bandit_a2.png","75","img/black_2bandit_a2.png","","prac","","","75","","","","","","","","","","","","","","","","",""
"null","","238462","SARL_v63vmvzctf","msl000087","feedback","","","img/yay_R_a.png","null","","na","prac","","","","","","","","","","","","","","","","","","","",""
"null","","238619","SARL_v63vmvzctf","msl000087","fixation","","","img/fixation.png","null","","","prac","","","","","","","","","","","","","","","","","","","",""
"292","","238914","SARL_v63vmvzctf","msl000087","rlPractice","","","img/black_2bandit_a2.png","75","img/black_2bandit_a2.png","","prac","","","75","","","","","","","","","","","","","","","","",""
"null","","239671","SARL_v63vmvzctf","msl000087","feedback","","","img/yay_R_a.png","null","","na","prac","","","","","","","","","","","","","","","","","","","",""
"null","","239827","SARL_v63vmvzctf","msl000087","fixation","","","img/fixation.png","null","","","prac","","","","","","","","","","","","","","","","","","","",""
"374","","240206","SARL_v63vmvzctf","msl000087","rlPractice","","","img/black_2bandit_a2.png","75","img/black_2bandit_a2.png","","prac","","","75","","","","","","","","","","","","","","","","",""
"null","","240962","SARL_v63vmvzctf","msl000087","feedback","","","img/yay_R_a.png","null","","na","prac","","","","","","","","","","","","","","","","","","","",""
"null","","241118","SARL_v63vmvzctf","msl000087","fixation","","","img/fixation.png","null","","","prac","","","","","","","","","","","","","","","","","","","",""
"332","","241454","SARL_v63vmvzctf","msl000087","rlPractice","","","img/black_2bandit_a2.png","75","img/black_2bandit_a2.png","","prac","","","75","","","","","","","","","","","","","","","","",""
"null","","242210","SARL_v63vmvzctf","msl000087","feedback","","","img/yay_R_a.png","null","","na","prac","","","","","","","","","","","","","","","","","","","",""
"null","","242366","SARL_v63vmvzctf","msl000087","fixation","","","img/fixation.png","null","","","prac","","","","","","","","","","","","","","","","","","","",""
"9892","","252261","SARL_v63vmvzctf","msl000087","","","","","","","","prac","","","","","","","","","","","","","","","","","","","",""
"721","","252988","SARL_v63vmvzctf","msl000087","mixAttFreqPrac","","","img/orange_2bandit_a2.png","68","img/orange_2bandit_a2.png","70","prac","","","","","","","","","","","","","","","","","","","",""
"721","","253073","SARL_v63vmvzctf","msl000087","freqPrac_resp","","","img/orange_2bandit_a.png","68","img/orange_2bandit_a.png","70","prac","","","","","","","","","","","","","","","","","","","",""
"null","","253229","SARL_v63vmvzctf","msl000087","fixation","","","img/fixation.png","null","","","prac","","","","","","","","","","","","","","","","","","","",""
"497","","253730","SARL_v63vmvzctf","msl000087","mixAttInfreqPrac","","","img/green_2bandit_a2.png","70","img/green_2bandit_a2.png","68","prac","","","","","","","","","","","","","","","","","","","",""
"497","","254039","SARL_v63vmvzctf","msl000087","infreqPrac_resp","","","img/green_2bandit_a.png","70","img/orange_2bandit_a.png","68","prac","","","","","","","","","","","","","","","","","","","",""
"null","","254196","SARL_v63vmvzctf","msl000087","fixation","","","img/fixation.png","null","","","prac","","","","","","","","","","","","","","","","","","","",""
"380","","254580","SARL_v63vmvzctf","msl000087","mixAttInfreqPrac","","","img/green_2bandit_a2.png","70","img/green_2bandit_a2.png","68","prac","","","","","","","","","","","","","","","","","","","",""
"380","","255007","SARL_v63vmvzctf","msl000087","infreqPrac_resp","","","img/green_2bandit_a.png","70","img/orange_2bandit_a.png","68","prac","","","","","","","","","","","","","","","","","","","",""
"null","","255162","SARL_v63vmvzctf","msl000087","fixation","","","img/fixation.png","null","","","prac","","","","","","","","","","","","","","","","","","","",""
"455","","255623","SARL_v63vmvzctf","msl000087","mixAttInfreqPrac","","","img/green_2bandit_a2.png","70","img/green_2bandit_a2.png","68","prac","","","","","","","","","","","","","","","","","","","",""
"455","","255972","SARL_v63vmvzctf","msl000087","infreqPrac_resp","","","img/green_2bandit_a.png","70","img/orange_2bandit_a.png","68","prac","","","","","","","","","","","","","","","","","","","",""
"null","","256129","SARL_v63vmvzctf","msl000087","fixation","","","img/fixation.png","null","","","prac","","","","","","","","","","","","","","","","","","","",""
"709","","256841","SARL_v63vmvzctf","msl000087","mixAttFreqPrac","","","img/orange_2bandit_a2.png","68","img/orange_2bandit_a2.png","70","prac","","","","","","","","","","","","","","","","","","","",""
"709","","256937","SARL_v63vmvzctf","msl000087","freqPrac_resp","","","img/orange_2bandit_a.png","68","img/orange_2bandit_a.png","70","prac","","","","","","","","","","","","","","","","","","","",""
"null","","257093","SARL_v63vmvzctf","msl000087","fixation","","","img/fixation.png","null","","","prac","","","","","","","","","","","","","","","","","","","",""
"557","","257655","SARL_v63vmvzctf","msl000087","mixRLPractice","","","img/black_2bandit_a2.png","74","img/black_2bandit_a2.png","","prac","","","","","","","","","","","","","","","","","","","",""
"null","","258410","SARL_v63vmvzctf","msl000087","feedback","","","img/yay_L_a.png","null","","na","prac","","","","","","","","","","","","","","","","","","","",""
"628","","259044","SARL_v63vmvzctf","msl000087","mixAttFreqPrac","","","img/orange_2bandit_a2.png","68","img/orange_2bandit_a2.png","70","prac","","","","","","","","","","","","","","","","","","","",""
"628","","259223","SARL_v63vmvzctf","msl000087","freqPrac_resp","","","img/orange_2bandit_a.png","68","img/orange_2bandit_a.png","70","prac","","","","","","","","","","","","","","","","","","","",""
"null","","259377","SARL_v63vmvzctf","msl000087","fixation","","","img/fixation.png","null","","","prac","","","","","","","","","","","","","","","","","","","",""
"726","","260109","SARL_v63vmvzctf","msl000087","mixAttInfreqPrac","","","img/green_2bandit_a2.png","68","img/green_2bandit_a2.png","68","prac","","","","","","","","","","","","","","","","","","","",""
"726","","260189","SARL_v63vmvzctf","msl000087","infreqPrac_resp","","","img/green_2bandit_a.png","68","img/orange_2bandit_a.png","68","prac","","","","","","","","","","","","","","","","","","","",""
"null","","260344","SARL_v63vmvzctf","msl000087","fixation","","","img/fixation.png","null","","","prac","","","","","","","","","","","","","","","","","","","",""
"647","","260996","SARL_v63vmvzctf","msl000087","mixAttFreqPrac","","","img/orange_2bandit_a2.png","70","img/orange_2bandit_a2.png","70","prac","","","","","","","","","","","","","","","","","","","",""
"647","","261155","SARL_v63vmvzctf","msl000087","freqPrac_resp","","","img/orange_2bandit_a.png","70","img/orange_2bandit_a.png","70","prac","","","","","","","","","","","","","","","","","","","",""
"null","","261311","SARL_v63vmvzctf","msl000087","fixation","","","img/fixation.png","null","","","prac","","","","","","","","","","","","","","","","","","","",""
"474","","261789","SARL_v63vmvzctf","msl000087","mixAttFreqPrac","","","img/orange_2bandit_a2.png","70","img/orange_2bandit_a2.png","70","prac","","","","","","","","","","","","","","","","","","","",""
"474","","262122","SARL_v63vmvzctf","msl000087","freqPrac_resp","","","img/orange_2bandit_a.png","70","img/orange_2bandit_a.png","70","prac","","","","","","","","","","","","","","","","","","","",""
"null","","262276","SARL_v63vmvzctf","msl000087","fixation","","","img/fixation.png","null","","","prac","","","","","","","","","","","","","","","","","","","",""
"533","","262813","SARL_v63vmvzctf","msl000087","mixAttInfreqPrac","","","img/green_2bandit_a2.png","68","img/green_2bandit_a2.png","68","prac","","","","","","","","","","","","","","","","","","","",""
"533","","263085","SARL_v63vmvzctf","msl000087","infreqPrac_resp","","","img/green_2bandit_a.png","68","img/orange_2bandit_a.png","68","prac","","","","","","","","","","","","","","","","","","","",""
"null","","263240","SARL_v63vmvzctf","msl000087","fixation","","","img/fixation.png","null","","","prac","","","","","","","","","","","","","","","","","","","",""
"512","","263757","SARL_v63vmvzctf","msl000087","mixRLPractice","","","img/black_2bandit_a2.png","74","img/black_2bandit_a2.png","","prac","","","","","","","","","","","","","","","","","","","",""
"null","","264512","SARL_v63vmvzctf","msl000087","feedback","","","img/yay_L_a.png","null","","na","prac","","","","","","","","","","","","","","","","","","","",""
"28651","","293167","SARL_v63vmvzctf","msl000087","","","","","","","","prac","","","","","","","","","","","","","","","","","","","",""
"752","","293925","SARL_v63vmvzctf","msl000087","freq","","","img/orange_2bandit_a2.png","70","","70","test","1","","","square","circle","1","1","1","1","1","","","","","","","","","",""
"null","","293978","SARL_v63vmvzctf","msl000087","freq_resp","","","img/orange_2bandit_a.png","70","img/orange_2bandit_a.png","70","test","","","","","","","","","1","","","","","","","","","","",""
"null","","294133","SARL_v63vmvzctf","msl000087","fixation","","","img/fixation.png","null","","","test","","","","","","","","","","","","","","","","","","","",""
"380","","294519","SARL_v63vmvzctf","msl000087","freq","","","img/orange_2bandit_a2.png","70","","70","test","1","","","square","circle","2","2","2","1","1","","","","","","","","","",""
"null","","294945","SARL_v63vmvzctf","msl000087","freq_resp","","","img/orange_2bandit_a.png","70","img/orange_2bandit_a.png","70","test","","","","","","","","","1","","","","","","","","","","",""
"null","","295100","SARL_v63vmvzctf","msl000087","fixation","","","img/fixation.png","null","","","test","","","","","","","","","","","","","","","","","","","",""
"336","","295441","SARL_v63vmvzctf","msl000087","freq","","","img/orange_2bandit_a2.png","70","","70","test","1","","","square","circle","3","3","3","1","1","","","","","","","","","",""
"null","","295911","SARL_v63vmvzctf","msl000087","freq_resp","","","img/orange_2bandit_a.png","70","img/orange_2bandit_a.png","70","test","","","","","","","","","1","","","","","","","","","","",""
"null","","296066","SARL_v63vmvzctf","msl000087","fixation","","","img/fixation.png","null","","","test","","","","","","","","","","","","","","","","","","","",""
"323","","296394","SARL_v63vmvzctf","msl000087","freq","","","img/orange_2bandit_a2.png","70","","70","test","1","","","square","circle","4","4","4","1","1","","","","","","","","","",""
"null","","296876","SARL_v63vmvzctf","msl000087","freq_resp","","","img/orange_2bandit_a.png","70","img/orange_2bandit_a.png","70","test","","","","","","","","","1","","","","","","","","","","",""
"null","","297032","SARL_v63vmvzctf","msl000087","fixation","","","img/fixation.png","null","","","test","","","","","","","","","","","","","","","","","","","",""
"333","","297371","SARL_v63vmvzctf","msl000087","freq","","","img/orange_2bandit_a2.png","70","","70","test","1","","","square","circle","5","5","5","1","1","","","","","","","","","",""
"null","","297843","SARL_v63vmvzctf","msl000087","freq_resp","","","img/orange_2bandit_a.png","70","img/orange_2bandit_a.png","70","test","","","","","","","","","1","","","","","","","","","","",""
"null","","298000","SARL_v63vmvzctf","msl000087","fixation","","","img/fixation.png","null","","","test","","","","","","","","","","","","","","","","","","","",""
"317","","298321","SARL_v63vmvzctf","msl000087","freq","","","img/orange_2bandit_a2.png","70","","70","test","1","","","square","circle","6","6","6","1","1","","","","","","","","","",""
"null","","298811","SARL_v63vmvzctf","msl000087","freq_resp","","","img/orange_2bandit_a.png","70","img/orange_2bandit_a.png","70","test","","","","","","","","","1","","","","","","","","","","",""
"null","","298968","SARL_v63vmvzctf","msl000087","fixation","","","img/fixation.png","null","","","test","","","","","","","","","","","","","","","","","","","",""
"333","","299306","SARL_v63vmvzctf","msl000087","freq","","","img/orange_2bandit_a2.png","70","","70","test","1","","","square","circle","7","7","7","1","1","","","","","","","","","",""
"null","","299779","SARL_v63vmvzctf","msl000087","freq_resp","","","img/orange_2bandit_a.png","70","img/orange_2bandit_a.png","70","test","","","","","","","","","1","","","","","","","","","","",""
"null","","299935","SARL_v63vmvzctf","msl000087","fixation","","","img/fixation.png","null","","","test","","","","","","","","","","","","","","","","","","","",""
"319","","300258","SARL_v63vmvzctf","msl000087","freq","","","img/orange_2bandit_a2.png","70","","70","test","1","","","square","circle","8","8","8","1","1","","","","","","","","","",""
"null","","300744","SARL_v63vmvzctf","msl000087","freq_resp","","","img/orange_2bandit_a.png","70","img/orange_2bandit_a.png","70","test","","","","","","","","","1","","","","","","","","","","",""
"null","","300899","SARL_v63vmvzctf","msl000087","fixation","","","img/fixation.png","null","","","test","","","","","","","","","","","","","","","","","","","",""
"303","","301207","SARL_v63vmvzctf","msl000087","freq","","","img/orange_2bandit_a2.png","70","","70","test","1","","","square","circle","9","9","9","1","1","","","","","","","","","",""
"null","","301709","SARL_v63vmvzctf","msl000087","freq_resp","","","img/orange_2bandit_a.png","70","img/orange_2bandit_a.png","70","test","","","","","","","","","1","","","","","","","","","","",""
"null","","301864","SARL_v63vmvzctf","msl000087","fixation","","","img/fixation.png","null","","","test","","","","","","","","","","","","","","","","","","","",""
"291","","302160","SARL_v63vmvzctf","msl000087","freq","","","img/orange_2bandit_a2.png","70","","70","test","1","","","square","circle","10","10","10","1","1","","","","","","","","","",""
"null","","302675","SARL_v63vmvzctf","msl000087","freq_resp","","","img/orange_2bandit_a.png","70","img/orange_2bandit_a.png","70","test","","","","","","","","","1","","","","","","","","","","",""
"null","","302830","SARL_v63vmvzctf","msl000087","fixation","","","img/fixation.png","null","","","test","","","","","","","","","","","","","","","","","","","",""
"305","","303141","SARL_v63vmvzctf","msl000087","freq","","","img/orange_2bandit_a2.png","70","","70","test","1","","","square","circle","11","11","11","1","1","","","","","","","","","",""
"null","","303641","SARL_v63vmvzctf","msl000087","freq_resp","","","img/orange_2bandit_a.png","70","img/orange_2bandit_a.png","70","test","","","","","","","","","1","","","","","","","","","","",""
"null","","303797","SARL_v63vmvzctf","msl000087","fixation","","","img/fixation.png","null","","","test","","","","","","","","","","","","","","","","","","","",""
"310","","304113","SARL_v63vmvzctf","msl000087","freq","","","img/orange_2bandit_a2.png","70","","70","test","1","","","square","circle","12","12","12","1","1","","","","","","","","","",""
"null","","304609","SARL_v63vmvzctf","msl000087","freq_resp","","","img/orange_2bandit_a.png","70","img/orange_2bandit_a.png","70","test","","","","","","","","","1","","","","","","","","","","",""
"null","","304764","SARL_v63vmvzctf","msl000087","fixation","","","img/fixation.png","null","","","test","","","","","","","","","","","","","","","","","","","",""
"302","","305072","SARL_v63vmvzctf","msl000087","freq","","","img/orange_2bandit_a2.png","70","","70","test","1","","","square","circle","13","13","13","1","1","","","","","","","","","",""
"null","","305574","SARL_v63vmvzctf","msl000087","freq_resp","","","img/orange_2bandit_a.png","70","img/orange_2bandit_a.png","70","test","","","","","","","","","1","","","","","","","","","","",""
"null","","305730","SARL_v63vmvzctf","msl000087","fixation","","","img/fixation.png","null","","","test","","","","","","","","","","","","","","","","","","","",""
"287","","306021","SARL_v63vmvzctf","msl000087","freq","","","img/orange_2bandit_a2.png","70","","70","test","1","","","square","circle","14","14","14","1","1","","","","","","","","","",""
"null","","306540","SARL_v63vmvzctf","msl000087","freq_resp","","","img/orange_2bandit_a.png","70","img/orange_2bandit_a.png","70","test","","","","","","","","","1","","","","","","","","","","",""
"null","","306697","SARL_v63vmvzctf","msl000087","fixation","","","img/fixation.png","null","","","test","","","","","","","","","","","","","","","","","","","",""
"187","","306888","SARL_v63vmvzctf","msl000087","infreq","","","img/green_2bandit_a2.png","70","","68","test","0","","","square","circle","15","15","15","1","0.9333333333333333","","","","","","","","","",""
"null","","307508","SARL_v63vmvzctf","msl000087","infreq_resp","","","img/green_2bandit_a.png","70","img/green_2bandit_a.png","68","test","","","","","","","","","1","","","","","","","","","","",""
"null","","307663","SARL_v63vmvzctf","msl000087","fixation","","","img/fixation.png","null","","","test","","","","","","","","","","","","","","","","","","","",""
"551","","308220","SARL_v63vmvzctf","msl000087","freq","","","img/orange_2bandit_a2.png","70","","70","test","1","","","square","circle","16","16","16","1","0.9375","","","","","","","","","",""
"null","","308474","SARL_v63vmvzctf","msl000087","freq_resp","","","img/orange_2bandit_a.png","70","img/orange_2bandit_a.png","70","test","","","","","","","","","1","","","","","","","","","","",""
"null","","308630","SARL_v63vmvzctf","msl000087","fixation","","","img/fixation.png","null","","","test","","","","","","","","","","","","","","","","","","","",""
"418","","309054","SARL_v63vmvzctf","msl000087","infreq","","","img/green_2bandit_a2.png","68","","68","test","1","","","square","circle","17","17","17","1","0.9411764705882353","","","","","","","","","",""
"null","","309441","SARL_v63vmvzctf","msl000087","infreq_resp","","","img/green_2bandit_a.png","68","img/green_2bandit_a.png","68","test","","","","","","","","","1","","","","","","","","","","",""
"null","","309597","SARL_v63vmvzctf","msl000087","fixation","","","img/fixation.png","null","","","test","","","","","","","","","","","","","","","","","","","",""
"489","","310090","SARL_v63vmvzctf","msl000087","freq","","","img/orange_2bandit_a2.png","70","","70","test","1","","","square","circle","18","18","18","1","0.9444444444444444","","","","","","","","","",""
"null","","310408","SARL_v63vmvzctf","msl000087","freq_resp","","","img/orange_2bandit_a.png","70","img/orange_2bandit_a.png","70","test","","","","","","","","","1","","","","","","","","","","",""
"null","","310563","SARL_v63vmvzctf","msl000087","fixation","","","img/fixation.png","null","","","test","","","","","","","","","","","","","","","","","","","",""
"384","","310953","SARL_v63vmvzctf","msl000087","freq","","","img/orange_2bandit_a2.png","70","","70","test","1","","","square","circle","19","19","19","1","0.9473684210526315","","","","","","","","","",""
"null","","311374","SARL_v63vmvzctf","msl000087","freq_resp","","","img/orange_2bandit_a.png","70","img/orange_2bandit_a.png","70","test","","","","","","","","","1","","","","","","","","","","",""
"null","","311531","SARL_v63vmvzctf","msl000087","fixation","","","img/fixation.png","null","","","test","","","","","","","","","","","","","","","","","","","",""
"337","","311872","SARL_v63vmvzctf","msl000087","freq","","","img/orange_2bandit_a2.png","70","","70","test","1","","","square","circle","20","20","20","1","0.95","","","","","","","","","",""
"null","","312341","SARL_v63vmvzctf","msl000087","freq_resp","","","img/orange_2bandit_a.png","70","img/orange_2bandit_a.png","70","test","","","","","","","","","1","","","","","","","","","","",""
"null","","312497","SARL_v63vmvzctf","msl000087","fixation","","","img/fixation.png","null","","","test","","","","","","","","","","","","","","","","","","","",""
"297","","312801","SARL_v63vmvzctf","msl000087","freq","","","img/orange_2bandit_a2.png","70","","70","test","1","","","square","circle","21","21","21","1","0.9523809523809523","","","","","","","","","",""
"null","","313310","SARL_v63vmvzctf","msl000087","freq_resp","","","img/orange_2bandit_a.png","70","img/orange_2bandit_a.png","70","test","","","","","","","","","1","","","","","","","","","","",""
"null","","313464","SARL_v63vmvzctf","msl000087","fixation","","","img/fixation.png","null","","","test","","","","","","","","","","","","","","","","","","","",""
"595","","314065","SARL_v63vmvzctf","msl000087","rl","","","img/black_2bandit_a2.png","74","","0","test","","","0","square","circle","22","","0","1","","74","0.8","0.2","0.8693232391503068","0.2","0.8","0.2","square","1","0"
"null","","314821","SARL_v63vmvzctf","msl000087","feedback","","","img/boo_L_a.png","null","","na","test","","","","","","","","","1","","74","0.8","0.2","","","","0.2","","1",""
"null","","315627","SARL_v63vmvzctf","msl000087","freq","","","img/orange_2bandit_a2.png","null","","70","test","0","","","square","circle","23","22","1","2","0.9090909090909091","","","","","","","","","",""
"null","","315782","SARL_v63vmvzctf","msl000087","fixation","","","img/fixation.png","null","","","test","","","","","","","","","","","","","","","","","","","",""
"34","","315820","SARL_v63vmvzctf","msl000087","freq","","","img/orange_2bandit_a2.png","70","","70","test","1","","","square","circle","24","23","2","2","0.9130434782608695","","","","","","","","","",""
"null","","316592","SARL_v63vmvzctf","msl000087","freq_resp","","","img/orange_2bandit_a.png","70","img/orange_2bandit_a.png","70","test","","","","","","","","","2","","","","","","","","","","",""
"null","","316747","SARL_v63vmvzctf","msl000087","fixation","","","img/fixation.png","null","","","test","","","","","","","","","","","","","","","","","","","",""
"620","","317372","SARL_v63vmvzctf","msl000087","freq","","","img/orange_2bandit_a2.png","70","","70","test","1","","","square","circle","25","24","3","2","0.9166666666666666","","","","","","","","","",""
"null","","317559","SARL_v63vmvzctf","msl000087","freq_resp","","","img/orange_2bandit_a.png","70","img/orange_2bandit_a.png","70","test","","","","","","","","","2","","","","","","","","","","",""
"null","","317715","SARL_v63vmvzctf","msl000087","fixation","","","img/fixation.png","null","","","test","","","","","","","","","","","","","","","","","","","",""
"320","","318041","SARL_v63vmvzctf","msl000087","freq","","","img/orange_2bandit_a2.png","70","","70","test","1","","","square","circle","26","25","4","2","0.92","","","","","","","","","",""
"null","","318527","SARL_v63vmvzctf","msl000087","freq_resp","","","img/orange_2bandit_a.png","70","img/orange_2bandit_a.png","70","test","","","","","","","","","2","","","","","","","","","","",""
"null","","318683","SARL_v63vmvzctf","msl000087","fixation","","","img/fixation.png","null","","","test","","","","","","","","","","","","","","","","","","","",""
"291","","318978","SARL_v63vmvzctf","msl000087","freq","","","img/orange_2bandit_a2.png","70","","70","test","1","","","square","circle","27","26","5","2","0.9230769230769231","","","","","","","","","",""
"null","","319493","SARL_v63vmvzctf","msl000087","freq_resp","","","img/orange_2bandit_a.png","70","img/orange_2bandit_a.png","70","test","","","","","","","","","2","","","","","","","","","","",""
"null","","319649","SARL_v63vmvzctf","msl000087","fixation","","","img/fixation.png","null","","","test","","","","","","","","","","","","","","","","","","","",""
"319","","319973","SARL_v63vmvzctf","msl000087","freq","","","img/orange_2bandit_a2.png","70","","70","test","1","","","square","circle","28","27","6","2","0.9259259259259259","","","","","","","","","",""
"null","","320458","SARL_v63vmvzctf","msl000087","freq_resp","","","img/orange_2bandit_a.png","70","img/orange_2bandit_a.png","70","test","","","","","","","","","2","","","","","","","","","","",""
"null","","320614","SARL_v63vmvzctf","msl000087","fixation","","","img/fixation.png","null","","","test","","","","","","","","","","","","","","","","","","","",""
"558","","321177","SARL_v63vmvzctf","msl000087","infreq","","","img/green_2bandit_a2.png","68","","68","test","1","","","square","circle","29","28","7","2","0.9285714285714286","","","","","","","","","",""
"null","","321425","SARL_v63vmvzctf","msl000087","infreq_resp","","","img/green_2bandit_a.png","68","img/green_2bandit_a.png","68","test","","","","","","","","","2","","","","","","","","","","",""
"null","","321582","SARL_v63vmvzctf","msl000087","fixation","","","img/fixation.png","null","","","test","","","","","","","","","","","","","","","","","","","",""
"449","","322035","SARL_v63vmvzctf","msl000087","freq","","","img/orange_2bandit_a2.png","70","","70","test","1","","","square","circle","30","29","8","2","0.9310344827586207","","","","","","","","","",""
"null","","322392","SARL_v63vmvzctf","msl000087","freq_resp","","","img/orange_2bandit_a.png","70","img/orange_2bandit_a.png","70","test","","","","","","","","","2","","","","","","","","","","",""
"null","","322548","SARL_v63vmvzctf","msl000087","fixation","","","img/fixation.png","null","","","test","","","","","","","","","","","","","","","","","","","",""
"360","","322913","SARL_v63vmvzctf","msl000087","freq","","","img/orange_2bandit_a2.png","70","","70","test","1","","","square","circle","31","30","9","2","0.9333333333333333","","","","","","","","","",""
"null","","323358","SARL_v63vmvzctf","msl000087","freq_resp","","","img/orange_2bandit_a.png","70","img/orange_2bandit_a.png","70","test","","","","","","","","","2","","","","","","","","","","",""
"null","","323513","SARL_v63vmvzctf","msl000087","fixation","","","img/fixation.png","null","","","test","","","","","","","","","","","","","","","","","","","",""
"348","","323866","SARL_v63vmvzctf","msl000087","freq","","","img/orange_2bandit_a2.png","70","","70","test","1","","","square","circle","32","31","10","2","0.9354838709677419","","","","","","","","","",""
"null","","324325","SARL_v63vmvzctf","msl000087","freq_resp","","","img/orange_2bandit_a.png","70","img/orange_2bandit_a.png","70","test","","","","","","","","","2","","","","","","","","","","",""
"null","","324480","SARL_v63vmvzctf","msl000087","fixation","","","img/fixation.png","null","","","test","","","","","","","","","","","","","","","","","","","",""
"427","","324911","SARL_v63vmvzctf","msl000087","infreq","","","img/green_2bandit_a2.png","68","","68","test","1","","","square","circle","33","32","11","2","0.9375","","","","","","","","","",""
"null","","325289","SARL_v63vmvzctf","msl000087","infreq_resp","","","img/green_2bandit_a.png","68","img/green_2bandit_a.png","68","test","","","","","","","","","2","","","","","","","","","","",""
"null","","325445","SARL_v63vmvzctf","msl000087","fixation","","","img/fixation.png","null","","","test","","","","","","","","","","","","","","","","","","","",""
"444","","325895","SARL_v63vmvzctf","msl000087","freq","","","img/orange_2bandit_a2.png","70","","70","test","1","","","square","circle","34","33","12","2","0.9393939393939394","","","","","","","","","",""
"null","","326256","SARL_v63vmvzctf","msl000087","freq_resp","","","img/orange_2bandit_a.png","70","img/orange_2bandit_a.png","70","test","","","","","","","","","2","","","","","","","","","","",""
"null","","326412","SARL_v63vmvzctf","msl000087","fixation","","","img/fixation.png","null","","","test","","","","","","","","","","","","","","","","","","","",""
"421","","326838","SARL_v63vmvzctf","msl000087","freq","","","img/orange_2bandit_a2.png","70","","70","test","1","","","square","circle","35","34","13","2","0.9411764705882353","","","","","","","","","",""
"null","","327222","SARL_v63vmvzctf","msl000087","freq_resp","","","img/orange_2bandit_a.png","70","img/orange_2bandit_a.png","70","test","","","","","","","","","2","","","","","","","","","","",""
"null","","327378","SARL_v63vmvzctf","msl000087","fixation","","","img/fixation.png","null","","","test","","","","","","","","","","","","","","","","","","","",""
"312","","327695","SARL_v63vmvzctf","msl000087","freq","","","img/orange_2bandit_a2.png","70","","70","test","1","","","square","circle","36","35","14","2","0.9428571428571428","","","","","","","","","",""
"null","","328189","SARL_v63vmvzctf","msl000087","freq_resp","","","img/orange_2bandit_a.png","70","img/orange_2bandit_a.png","70","test","","","","","","","","","2","","","","","","","","","","",""
"null","","328344","SARL_v63vmvzctf","msl000087","fixation","","","img/fixation.png","null","","","test","","","","","","","","","","","","","","","","","","","",""
"305","","328654","SARL_v63vmvzctf","msl000087","freq","","","img/orange_2bandit_a2.png","70","","70","test","1","","","square","circle","37","36","15","2","0.9444444444444444","","","","","","","","","",""
"null","","329155","SARL_v63vmvzctf","msl000087","freq_resp","","","img/orange_2bandit_a.png","70","img/orange_2bandit_a.png","70","test","","","","","","","","","2","","","","","","","","","","",""
"null","","329311","SARL_v63vmvzctf","msl000087","fixation","","","img/fixation.png","null","","","test","","","","","","","","","","","","","","","","","","","",""
"212","","329528","SARL_v63vmvzctf","msl000087","freq","","","img/orange_2bandit_a2.png","70","","70","test","1","","","square","circle","38","37","16","2","0.9459459459459459","","","","","","","","","",""
"null","","330123","SARL_v63vmvzctf","msl000087","freq_resp","","","img/orange_2bandit_a.png","70","img/orange_2bandit_a.png","70","test","","","","","","","","","2","","","","","","","","","","",""
"null","","330278","SARL_v63vmvzctf","msl000087","fixation","","","img/fixation.png","null","","","test","","","","","","","","","","","","","","","","","","","",""
"134","","330416","SARL_v63vmvzctf","msl000087","freq","","","img/orange_2bandit_a2.png","70","","70","test","1","","","square","circle","39","38","17","2","0.9473684210526315","","","","","","","","","",""
"null","","331088","SARL_v63vmvzctf","msl000087","freq_resp","","","img/orange_2bandit_a.png","70","img/orange_2bandit_a.png","70","test","","","","","","","","","2","","","","","","","","","","",""
"null","","331244","SARL_v63vmvzctf","msl000087","fixation","","","img/fixation.png","null","","","test","","","","","","","","","","","","","","","","","","","",""
"400","","331650","SARL_v63vmvzctf","msl000087","infreq","","","img/green_2bandit_a2.png","68","","68","test","1","","","square","circle","40","39","18","2","0.9487179487179487","","","","","","","","","",""
"null","","332055","SARL_v63vmvzctf","msl000087","infreq_resp","","","img/green_2bandit_a.png","68","img/green_2bandit_a.png","68","test","","","","","","","","","2","","","","","","","","","","",""
"null","","332211","SARL_v63vmvzctf","msl000087","fixation","","","img/fixation.png","null","","","test","","","","","","","","","","","","","","","","","","","",""
"443","","332659","SARL_v63vmvzctf","msl000087","freq","","","img/orange_2bandit_a2.png","70","","70","test","1","","","square","circle","41","40","19","2","0.95","","","","","","","","","",""
"null","","333021","SARL_v63vmvzctf","msl000087","freq_resp","","","img/orange_2bandit_a.png","70","img/orange_2bandit_a.png","70","test","","","","","","","","","2","","","","","","","","","","",""
"null","","333178","SARL_v63vmvzctf","msl000087","fixation","","","img/fixation.png","null","","","test","","","","","","","","","","","","","","","","","","","",""
"366","","333548","SARL_v63vmvzctf","msl000087","freq","","","img/orange_2bandit_a2.png","70","","70","test","1","","","square","circle","42","41","20","2","0.9512195121951219","","","","","","","","","",""
"null","","333987","SARL_v63vmvzctf","msl000087","freq_resp","","","img/orange_2bandit_a.png","70","img/orange_2bandit_a.png","70","test","","","","","","","","","2","","","","","","","","","","",""
"null","","334143","SARL_v63vmvzctf","msl000087","fixation","","","img/fixation.png","null","","","test","","","","","","","","","","","","","","","","","","","",""
"302","","334451","SARL_v63vmvzctf","msl000087","freq","","","img/orange_2bandit_a2.png","70","","70","test","1","","","square","circle","43","42","21","2","0.9523809523809523","","","","","","","","","",""
"null","","334954","SARL_v63vmvzctf","msl000087","freq_resp","","","img/orange_2bandit_a.png","70","img/orange_2bandit_a.png","70","test","","","","","","","","","2","","","","","","","","","","",""
"null","","335110","SARL_v63vmvzctf","msl000087","fixation","","","img/fixation.png","null","","","test","","","","","","","","","","","","","","","","","","","",""
"599","","335714","SARL_v63vmvzctf","msl000087","rl","","","img/black_2bandit_a2.png","74","","0","test","","","1","square","circle","44","","0","2","","74","0.8","0.2","0.1423074313808934","0.2","0.8","0.2","square","2","0"
"null","","336469","SARL_v63vmvzctf","msl000087","feedback","","","img/yay_L_a.png","null","","na","test","","","","","","","","","2","","74","0.8","0.2","","","","0.2","","2",""
"682","","337155","SARL_v63vmvzctf","msl000087","freq","","","img/orange_2bandit_a2.png","68","","70","test","0","","","square","circle","45","43","1","3","0.9302325581395349","","","","","","","","","",""
"null","","337278","SARL_v63vmvzctf","msl000087","freq_resp","","","img/orange_2bandit_a.png","68","img/orange_2bandit_a.png","70","test","","","","","","","","","3","","","","","","","","","","",""
"null","","337434","SARL_v63vmvzctf","msl000087","fixation","","","img/fixation.png","null","","","test","","","","","","","","","","","","","","","","","","","",""
"541","","337980","SARL_v63vmvzctf","msl000087","freq","","","img/orange_2bandit_a2.png","70","","70","test","1","","","square","circle","46","44","2","3","0.9318181818181818","","","","","","","","","",""
"null","","338244","SARL_v63vmvzctf","msl000087","freq_resp","","","img/orange_2bandit_a.png","70","img/orange_2bandit_a.png","70","test","","","","","","","","","3","","","","","","","","","","",""
"null","","338400","SARL_v63vmvzctf","msl000087","fixation","","","img/fixation.png","null","","","test","","","","","","","","","","","","","","","","","","","",""
"352","","338756","SARL_v63vmvzctf","msl000087","freq","","","img/orange_2bandit_a2.png","70","","70","test","1","","","square","circle","47","45","3","3","0.9333333333333333","","","","","","","","","",""
"null","","339209","SARL_v63vmvzctf","msl000087","freq_resp","","","img/orange_2bandit_a.png","70","img/orange_2bandit_a.png","70","test","","","","","","","","","3","","","","","","","","","","",""
"null","","339365","SARL_v63vmvzctf","msl000087","fixation","","","img/fixation.png","null","","","test","","","","","","","","","","","","","","","","","","","",""
"324","","339694","SARL_v63vmvzctf","msl000087","freq","","","img/orange_2bandit_a2.png","70","","70","test","1","","","square","circle","48","46","4","3","0.9347826086956522","","","","","","","","","",""
"null","","340174","SARL_v63vmvzctf","msl000087","freq_resp","","","img/orange_2bandit_a.png","70","img/orange_2bandit_a.png","70","test","","","","","","","","","3","","","","","","","","","","",""
"null","","340331","SARL_v63vmvzctf","msl000087","fixation","","","img/fixation.png","null","","","test","","","","","","","","","","","","","","","","","","","",""
"null","","341137","SARL_v63vmvzctf","msl000087","infreq","","","img/green_2bandit_a2.png","null","","68","test","0","","","square","circle","49","47","5","3","0.9148936170212766","","","","","","","","","",""
"null","","341292","SARL_v63vmvzctf","msl000087","fixation","","","img/fixation.png","null","","","test","","","","","","","","","","","","","","","","","","","",""
"692","","341989","SARL_v63vmvzctf","msl000087","freq","","","img/orange_2bandit_a2.png","70","","70","test","1","","","square","circle","50","48","6","3","0.9166666666666666","","","","","","","","","",""
"null","","342103","SARL_v63vmvzctf","msl000087","freq_resp","","","img/orange_2bandit_a.png","70","img/orange_2bandit_a.png","70","test","","","","","","","","","3","","","","","","","","","","",""
"null","","342258","SARL_v63vmvzctf","msl000087","fixation","","","img/fixation.png","null","","","test","","","","","","","","","","","","","","","","","","","",""
"456","","342718","SARL_v63vmvzctf","msl000087","freq","","","img/orange_2bandit_a2.png","70","","70","test","1","","","square","circle","51","49","7","3","0.9183673469387755","","","","","","","","","",""
"null","","343069","SARL_v63vmvzctf","msl000087","freq_resp","","","img/orange_2bandit_a.png","70","img/orange_2bandit_a.png","70","test","","","","","","","","","3","","","","","","","","","","",""
"null","","343224","SARL_v63vmvzctf","msl000087","fixation","","","img/fixation.png","null","","","test","","","","","","","","","","","","","","","","","","","",""
"356","","343585","SARL_v63vmvzctf","msl000087","freq","","","img/orange_2bandit_a2.png","70","","70","test","1","","","square","circle","52","50","8","3","0.92","","","","","","","","","",""
"null","","344034","SARL_v63vmvzctf","msl000087","freq_resp","","","img/orange_2bandit_a.png","70","img/orange_2bandit_a.png","70","test","","","","","","","","","3","","","","","","","","","","",""
"null","","344190","SARL_v63vmvzctf","msl000087","fixation","","","img/fixation.png","null","","","test","","","","","","","","","","","","","","","","","","","",""
"323","","344518","SARL_v63vmvzctf","msl000087","freq","","","img/orange_2bandit_a2.png","70","","70","test","1","","","square","circle","53","51","9","3","0.9215686274509803","","","","","","","","","",""
"null","","345001","SARL_v63vmvzctf","msl000087","freq_resp","","","img/orange_2bandit_a.png","70","img/orange_2bandit_a.png","70","test","","","","","","","","","3","","","","","","","","","","",""
"null","","345157","SARL_v63vmvzctf","msl000087","fixation","","","img/fixation.png","null","","","test","","","","","","","","","","","","","","","","","","","",""
"336","","345498","SARL_v63vmvzctf","msl000087","freq","","","img/orange_2bandit_a2.png","70","","70","test","1","","","square","circle","54","52","10","3","0.9230769230769231","","","","","","","","","",""
"null","","345968","SARL_v63vmvzctf","msl000087","freq_resp","","","img/orange_2bandit_a.png","70","img/orange_2bandit_a.png","70","test","","","","","","","","","3","","","","","","","","","","",""
"null","","346124","SARL_v63vmvzctf","msl000087","fixation","","","img/fixation.png","null","","","test","","","","","","","","","","","","","","","","","","","",""
"333","","346461","SARL_v63vmvzctf","msl000087","freq","","","img/orange_2bandit_a2.png","70","","70","test","1","","","square","circle","55","53","11","3","0.9245283018867925","","","","","","","","","",""
"null","","346934","SARL_v63vmvzctf","msl000087","freq_resp","","","img/orange_2bandit_a.png","70","img/orange_2bandit_a.png","70","test","","","","","","","","","3","","","","","","","","","","",""
"null","","347090","SARL_v63vmvzctf","msl000087","fixation","","","img/fixation.png","null","","","test","","","","","","","","","","","","","","","","","","","",""
"342","","347436","SARL_v63vmvzctf","msl000087","freq","","","img/orange_2bandit_a2.png","70","","70","test","1","","","square","circle","56","54","12","3","0.9259259259259259","","","","","","","","","",""
"null","","347899","SARL_v63vmvzctf","msl000087","freq_resp","","","img/orange_2bandit_a.png","70","img/orange_2bandit_a.png","70","test","","","","","","","","","3","","","","","","","","","","",""
"null","","348054","SARL_v63vmvzctf","msl000087","fixation","","","img/fixation.png","null","","","test","","","","","","","","","","","","","","","","","","","",""
"315","","348373","SARL_v63vmvzctf","msl000087","freq","","","img/orange_2bandit_a2.png","70","","70","test","1","","","square","circle","57","55","13","3","0.9272727272727272","","","","","","","","","",""
"null","","348864","SARL_v63vmvzctf","msl000087","freq_resp","","","img/orange_2bandit_a.png","70","img/orange_2bandit_a.png","70","test","","","","","","","","","3","","","","","","","","","","",""
"null","","349019","SARL_v63vmvzctf","msl000087","fixation","","","img/fixation.png","null","","","test","","","","","","","","","","","","","","","","","","","",""
"310","","349334","SARL_v63vmvzctf","msl000087","freq","","","img/orange_2bandit_a2.png","70","","70","test","1","","","square","circle","58","56","14","3","0.9285714285714286","","","","","","","","","",""
"null","","349830","SARL_v63vmvzctf","msl000087","freq_resp","","","img/orange_2bandit_a.png","70","img/orange_2bandit_a.png","70","test","","","","","","","","","3","","","","","","","","","","",""
"null","","349986","SARL_v63vmvzctf","msl000087","fixation","","","img/fixation.png","null","","","test","","","","","","","","","","","","","","","","","","","",""
"393","","350385","SARL_v63vmvzctf","msl000087","infreq","","","img/green_2bandit_a2.png","68","","68","test","1","","","square","circle","59","57","15","3","0.9298245614035088","","","","","","","","","",""
"null","","350797","SARL_v63vmvzctf","msl000087","infreq_resp","","","img/green_2bandit_a.png","68","img/green_2bandit_a.png","68","test","","","","","","","","","3","","","","","","","","","","",""
"null","","350953","SARL_v63vmvzctf","msl000087","fixation","","","img/fixation.png","null","","","test","","","","","","","","","","","","","","","","","","","",""
"476","","351435","SARL_v63vmvzctf","msl000087","freq","","","img/orange_2bandit_a2.png","70","","70","test","1","","","square","circle","60","58","16","3","0.9310344827586207","","","","","","","","","",""
"null","","351765","SARL_v63vmvzctf","msl000087","freq_resp","","","img/orange_2bandit_a.png","70","img/orange_2bandit_a.png","70","test","","","","","","","","","3","","","","","","","","","","",""
"null","","351920","SARL_v63vmvzctf","msl000087","fixation","","","img/fixation.png","null","","","test","","","","","","","","","","","","","","","","","","","",""
"311","","352236","SARL_v63vmvzctf","msl000087","freq","","","img/orange_2bandit_a2.png","70","","70","test","1","","","square","circle","61","59","17","3","0.9322033898305084","","","","","","","","","",""
"null","","352731","SARL_v63vmvzctf","msl000087","freq_resp","","","img/orange_2bandit_a.png","70","img/orange_2bandit_a.png","70","test","","","","","","","","","3","","","","","","","","","","",""
"null","","352888","SARL_v63vmvzctf","msl000087","fixation","","","img/fixation.png","null","","","test","","","","","","","","","","","","","","","","","","","",""
"298","","353190","SARL_v63vmvzctf","msl000087","freq","","","img/orange_2bandit_a2.png","70","","70","test","1","","","square","circle","62","60","18","3","0.9333333333333333","","","","","","","","","",""
"null","","353697","SARL_v63vmvzctf","msl000087","freq_resp","","","img/orange_2bandit_a.png","70","img/orange_2bandit_a.png","70","test","","","","","","","","","3","","","","","","","","","","",""
"null","","353852","SARL_v63vmvzctf","msl000087","fixation","","","img/fixation.png","null","","","test","","","","","","","","","","","","","","","","","","","",""
"108","","353965","SARL_v63vmvzctf","msl000087","freq","","","img/orange_2bandit_a2.png","70","","70","test","1","","","square","circle","63","61","19","3","0.9344262295081968","","","","","","","","","",""
"null","","354663","SARL_v63vmvzctf","msl000087","freq_resp","","","img/orange_2bandit_a.png","70","img/orange_2bandit_a.png","70","test","","","","","","","","","3","","","","","","","","","","",""
"null","","354819","SARL_v63vmvzctf","msl000087","fixation","","","img/fixation.png","null","","","test","","","","","","","","","","","","","","","","","","","",""
"49","","354871","SARL_v63vmvzctf","msl000087","freq","","","img/orange_2bandit_a2.png","70","","70","test","1","","","square","circle","64","62","20","3","0.9354838709677419","","","","","","","","","",""
"null","","355629","SARL_v63vmvzctf","msl000087","freq_resp","","","img/orange_2bandit_a.png","70","img/orange_2bandit_a.png","70","test","","","","","","","","","3","","","","","","","","","","",""
"null","","355784","SARL_v63vmvzctf","msl000087","fixation","","","img/fixation.png","null","","","test","","","","","","","","","","","","","","","","","","","",""
"96","","355885","SARL_v63vmvzctf","msl000087","infreq","","","img/green_2bandit_a2.png","70","","68","test","0","","","square","circle","65","63","21","3","0.9206349206349206","","","","","","","","","",""
"null","","356595","SARL_v63vmvzctf","msl000087","infreq_resp","","","img/green_2bandit_a.png","70","img/green_2bandit_a.png","68","test","","","","","","","","","3","","","","","","","","","","",""
"null","","356750","SARL_v63vmvzctf","msl000087","fixation","","","img/fixation.png","null","","","test","","","","","","","","","","","","","","","","","","","",""
"460","","357216","SARL_v63vmvzctf","msl000087","freq","","","img/orange_2bandit_a2.png","70","","70","test","1","","","square","circle","66","64","22","3","0.921875","","","","","","","","","",""
"null","","357562","SARL_v63vmvzctf","msl000087","freq_resp","","","img/orange_2bandit_a.png","70","img/orange_2bandit_a.png","70","test","","","","","","","","","3","","","","","","","","","","",""
"null","","357717","SARL_v63vmvzctf","msl000087","fixation","","","img/fixation.png","null","","","test","","","","","","","","","","","","","","","","","","","",""
"208","","357930","SARL_v63vmvzctf","msl000087","freq","","","img/orange_2bandit_a2.png","70","","70","test","1","","","square","circle","67","65","23","3","0.9230769230769231","","","","","","","","","",""
"null","","358527","SARL_v63vmvzctf","msl000087","freq_resp","","","img/orange_2bandit_a.png","70","img/orange_2bandit_a.png","70","test","","","","","","","","","3","","","","","","","","","","",""
"null","","358683","SARL_v63vmvzctf","msl000087","fixation","","","img/fixation.png","null","","","test","","","","","","","","","","","","","","","","","","","",""
"129","","358815","SARL_v63vmvzctf","msl000087","freq","","","img/orange_2bandit_a2.png","70","","70","test","1","","","square","circle","68","66","24","3","0.9242424242424242","","","","","","","","","",""
"null","","359492","SARL_v63vmvzctf","msl000087","freq_resp","","","img/orange_2bandit_a.png","70","img/orange_2bandit_a.png","70","test","","","","","","","","","3","","","","","","","","","","",""
"null","","359648","SARL_v63vmvzctf","msl000087","fixation","","","img/fixation.png","null","","","test","","","","","","","","","","","","","","","","","","","",""
"26","","359679","SARL_v63vmvzctf","msl000087","freq","","","img/orange_2bandit_a2.png","70","","70","test","1","","","square","circle","69","67","25","3","0.9253731343283582","","","","","","","","","",""
"null","","360460","SARL_v63vmvzctf","msl000087","freq_resp","","","img/orange_2bandit_a.png","70","img/orange_2bandit_a.png","70","test","","","","","","","","","3","","","","","","","","","","",""
"null","","360616","SARL_v63vmvzctf","msl000087","fixation","","","img/fixation.png","null","","","test","","","","","","","","","","","","","","","","","","","",""
"49","","360670","SARL_v63vmvzctf","msl000087","freq","","","img/orange_2bandit_a2.png","70","","70","test","1","","","square","circle","70","68","26","3","0.9264705882352942","","","","","","","","","",""
"null","","361427","SARL_v63vmvzctf","msl000087","freq_resp","","","img/orange_2bandit_a.png","70","img/orange_2bandit_a.png","70","test","","","","","","","","","3","","","","","","","","","","",""
"null","","361583","SARL_v63vmvzctf","msl000087","fixation","","","img/fixation.png","null","","","test","","","","","","","","","","","","","","","","","","","",""
"662","","362250","SARL_v63vmvzctf","msl000087","rl","","","img/black_2bandit_a2.png","75","","0","test","","","1","square","circle","71","","0","3","","75","0.8","0.2","0.5906264103821586","0.2","0.8","0.8","circle","3","0"
"null","","363006","SARL_v63vmvzctf","msl000087","feedback","","","img/yay_R_a.png","null","","na","test","","","","","","","","","3","","75","0.8","0.2","","","","0.8","","3",""
"498","","363509","SARL_v63vmvzctf","msl000087","freq","","","img/orange_2bandit_a2.png","70","","70","test","1","","","square","circle","72","69","1","4","0.927536231884058","","","","","","","","","",""
"null","","363817","SARL_v63vmvzctf","msl000087","freq_resp","","","img/orange_2bandit_a.png","70","img/orange_2bandit_a.png","70","test","","","","","","","","","4","","","","","","","","","","",""
"null","","363971","SARL_v63vmvzctf","msl000087","fixation","","","img/fixation.png","null","","","test","","","","","","","","","","","","","","","","","","","",""
"225","","364202","SARL_v63vmvzctf","msl000087","freq","","","img/orange_2bandit_a2.png","70","","70","test","1","","","square","circle","73","70","2","4","0.9285714285714286","","","","","","","","","",""
"null","","364783","SARL_v63vmvzctf","msl000087","freq_resp","","","img/orange_2bandit_a.png","70","img/orange_2bandit_a.png","70","test","","","","","","","","","4","","","","","","","","","","",""
"null","","364938","SARL_v63vmvzctf","msl000087","fixation","","","img/fixation.png","null","","","test","","","","","","","","","","","","","","","","","","","",""
"16","","364960","SARL_v63vmvzctf","msl000087","freq","","","img/orange_2bandit_a2.png","70","","70","test","1","","","square","circle","74","71","3","4","0.9295774647887324","","","","","","","","","",""
"null","","365750","SARL_v63vmvzctf","msl000087","freq_resp","","","img/orange_2bandit_a.png","70","img/orange_2bandit_a.png","70","test","","","","","","","","","4","","","","","","","","","","",""
"null","","365906","SARL_v63vmvzctf","msl000087","fixation","","","img/fixation.png","null","","","test","","","","","","","","","","","","","","","","","","","",""
"337","","366249","SARL_v63vmvzctf","msl000087","freq","","","img/orange_2bandit_a2.png","70","","70","test","1","","","square","circle","75","72","4","4","0.9305555555555556","","","","","","","","","",""
"null","","366717","SARL_v63vmvzctf","msl000087","freq_resp","","","img/orange_2bandit_a.png","70","img/orange_2bandit_a.png","70","test","","","","","","","","","4","","","","","","","","","","",""
"null","","366873","SARL_v63vmvzctf","msl000087","fixation","","","img/fixation.png","null","","","test","","","","","","","","","","","","","","","","","","","",""
"90","","366968","SARL_v63vmvzctf","msl000087","freq","","","img/orange_2bandit_a2.png","70","","70","test","1","","","square","circle","76","73","5","4","0.9315068493150684","","","","","","","","","",""
"null","","367682","SARL_v63vmvzctf","msl000087","freq_resp","","","img/orange_2bandit_a.png","70","img/orange_2bandit_a.png","70","test","","","","","","","","","4","","","","","","","","","","",""
"null","","367839","SARL_v63vmvzctf","msl000087","fixation","","","img/fixation.png","null","","","test","","","","","","","","","","","","","","","","","","","",""
"233","","368076","SARL_v63vmvzctf","msl000087","freq","","","img/orange_2bandit_a2.png","70","","70","test","1","","","square","circle","77","74","6","4","0.9324324324324325","","","","","","","","","",""
"null","","368648","SARL_v63vmvzctf","msl000087","freq_resp","","","img/orange_2bandit_a.png","70","img/orange_2bandit_a.png","70","test","","","","","","","","","4","","","","","","","","","","",""
"null","","368803","SARL_v63vmvzctf","msl000087","fixation","","","img/fixation.png","null","","","test","","","","","","","","","","","","","","","","","","","",""
"61","","368870","SARL_v63vmvzctf","msl000087","freq","","","img/orange_2bandit_a2.png","70","","70","test","1","","","square","circle","78","75","7","4","0.9333333333333333","","","","","","","","","",""
"null","","369614","SARL_v63vmvzctf","msl000087","freq_resp","","","img/orange_2bandit_a.png","70","img/orange_2bandit_a.png","70","test","","","","","","","","","4","","","","","","","","","","",""
"null","","369769","SARL_v63vmvzctf","msl000087","fixation","","","img/fixation.png","null","","","test","","","","","","","","","","","","","","","","","","","",""
"369","","370144","SARL_v63vmvzctf","msl000087","freq","","","img/orange_2bandit_a2.png","70","","70","test","1","","","square","circle","79","76","8","4","0.9342105263157895","","","","","","","","","",""
"null","","370581","SARL_v63vmvzctf","msl000087","freq_resp","","","img/orange_2bandit_a.png","70","img/orange_2bandit_a.png","70","test","","","","","","","","","4","","","","","","","","","","",""
"null","","370737","SARL_v63vmvzctf","msl000087","fixation","","","img/fixation.png","null","","","test","","","","","","","","","","","","","","","","","","","",""
"350","","371093","SARL_v63vmvzctf","msl000087","freq","","","img/orange_2bandit_a2.png","70","","70","test","1","","","square","circle","80","77","9","4","0.935064935064935","","","","","","","","","",""
"null","","371548","SARL_v63vmvzctf","msl000087","freq_resp","","","img/orange_2bandit_a.png","70","img/orange_2bandit_a.png","70","test","","","","","","","","","4","","","","","","","","","","",""
"null","","371704","SARL_v63vmvzctf","msl000087","fixation","","","img/fixation.png","null","","","test","","","","","","","","","","","","","","","","","","","",""
"319","","372027","SARL_v63vmvzctf","msl000087","freq","","","img/orange_2bandit_a2.png","70","","70","test","1","","","square","circle","81","78","10","4","0.9358974358974359","","","","","","","","","",""
"null","","372514","SARL_v63vmvzctf","msl000087","freq_resp","","","img/orange_2bandit_a.png","70","img/orange_2bandit_a.png","70","test","","","","","","","","","4","","","","","","","","","","",""
"null","","372670","SARL_v63vmvzctf","msl000087","fixation","","","img/fixation.png","null","","","test","","","","","","","","","","","","","","","","","","","",""
"330","","373004","SARL_v63vmvzctf","msl000087","freq","","","img/orange_2bandit_a2.png","70","","70","test","1","","","square","circle","82","79","11","4","0.9367088607594937","","","","","","","","","",""
"null","","373479","SARL_v63vmvzctf","msl000087","freq_resp","","","img/orange_2bandit_a.png","70","img/orange_2bandit_a.png","70","test","","","","","","","","","4","","","","","","","","","","",""
"null","","373635","SARL_v63vmvzctf","msl000087","fixation","","","img/fixation.png","null","","","test","","","","","","","","","","","","","","","","","","","",""
"399","","374038","SARL_v63vmvzctf","msl000087","infreq","","","img/green_2bandit_a2.png","68","","68","test","1","","","square","circle","83","80","12","4","0.9375","","","","","","","","","",""
"null","","374445","SARL_v63vmvzctf","msl000087","infreq_resp","","","img/green_2bandit_a.png","68","img/green_2bandit_a.png","68","test","","","","","","","","","4","","","","","","","","","","",""
"null","","374599","SARL_v63vmvzctf","msl000087","fixation","","","img/fixation.png","null","","","test","","","","","","","","","","","","","","","","","","","",""
"453","","375057","SARL_v63vmvzctf","msl000087","freq","","","img/orange_2bandit_a2.png","70","","70","test","1","","","square","circle","84","81","13","4","0.9382716049382716","","","","","","","","","",""
"null","","375410","SARL_v63vmvzctf","msl000087","freq_resp","","","img/orange_2bandit_a.png","70","img/orange_2bandit_a.png","70","test","","","","","","","","","4","","","","","","","","","","",""
"null","","375565","SARL_v63vmvzctf","msl000087","fixation","","","img/fixation.png","null","","","test","","","","","","","","","","","","","","","","","","","",""
"402","","375972","SARL_v63vmvzctf","msl000087","freq","","","img/orange_2bandit_a2.png","70","","70","test","1","","","square","circle","85","82","14","4","0.9390243902439024","","","","","","","","","",""
"null","","376375","SARL_v63vmvzctf","msl000087","freq_resp","","","img/orange_2bandit_a.png","70","img/orange_2bandit_a.png","70","test","","","","","","","","","4","","","","","","","","","","",""
"null","","376531","SARL_v63vmvzctf","msl000087","fixation","","","img/fixation.png","null","","","test","","","","","","","","","","","","","","","","","","","",""
"390","","376926","SARL_v63vmvzctf","msl000087","freq","","","img/orange_2bandit_a2.png","70","","70","test","1","","","square","circle","86","83","15","4","0.9397590361445783","","","","","","","","","",""
"null","","377342","SARL_v63vmvzctf","msl000087","freq_resp","","","img/orange_2bandit_a.png","70","img/orange_2bandit_a.png","70","test","","","","","","","","","4","","","","","","","","","","",""
"null","","377498","SARL_v63vmvzctf","msl000087","fixation","","","img/fixation.png","null","","","test","","","","","","","","","","","","","","","","","","","",""
"315","","377818","SARL_v63vmvzctf","msl000087","freq","","","img/orange_2bandit_a2.png","70","","70","test","1","","","square","circle","87","84","16","4","0.9404761904761905","","","","","","","","","",""
"null","","378308","SARL_v63vmvzctf","msl000087","freq_resp","","","img/orange_2bandit_a.png","70","img/orange_2bandit_a.png","70","test","","","","","","","","","4","","","","","","","","","","",""
"null","","378463","SARL_v63vmvzctf","msl000087","fixation","","","img/fixation.png","null","","","test","","","","","","","","","","","","","","","","","","","",""
"308","","378775","SARL_v63vmvzctf","msl000087","freq","","","img/orange_2bandit_a2.png","70","","70","test","1","","","square","circle","88","85","17","4","0.9411764705882353","","","","","","","","","",""
"null","","379274","SARL_v63vmvzctf","msl000087","freq_resp","","","img/orange_2bandit_a.png","70","img/orange_2bandit_a.png","70","test","","","","","","","","","4","","","","","","","","","","",""
"null","","379429","SARL_v63vmvzctf","msl000087","fixation","","","img/fixation.png","null","","","test","","","","","","","","","","","","","","","","","","","",""
"124","","379559","SARL_v63vmvzctf","msl000087","freq","","","img/orange_2bandit_a2.png","70","","70","test","1","","","square","circle","89","86","18","4","0.9418604651162791","","","","","","","","","",""
"null","","380241","SARL_v63vmvzctf","msl000087","freq_resp","","","img/orange_2bandit_a.png","70","img/orange_2bandit_a.png","70","test","","","","","","","","","4","","","","","","","","","","",""
"null","","380397","SARL_v63vmvzctf","msl000087","fixation","","","img/fixation.png","null","","","test","","","","","","","","","","","","","","","","","","","",""
"90","","380493","SARL_v63vmvzctf","msl000087","infreq","","","img/green_2bandit_a2.png","70","","68","test","0","","","square","circle","90","87","19","4","0.9310344827586207","","","","","","","","","",""
"null","","381208","SARL_v63vmvzctf","msl000087","infreq_resp","","","img/green_2bandit_a.png","70","img/green_2bandit_a.png","68","test","","","","","","","","","4","","","","","","","","","","",""
"null","","381364","SARL_v63vmvzctf","msl000087","fixation","","","img/fixation.png","null","","","test","","","","","","","","","","","","","","","","","","","",""
"475","","381843","SARL_v63vmvzctf","msl000087","freq","","","img/orange_2bandit_a2.png","70","","70","test","1","","","square","circle","91","88","20","4","0.9318181818181818","","","","","","","","","",""
"null","","382174","SARL_v63vmvzctf","msl000087","freq_resp","","","img/orange_2bandit_a.png","70","img/orange_2bandit_a.png","70","test","","","","","","","","","4","","","","","","","","","","",""
"null","","382330","SARL_v63vmvzctf","msl000087","fixation","","","img/fixation.png","null","","","test","","","","","","","","","","","","","","","","","","","",""
"344","","382680","SARL_v63vmvzctf","msl000087","freq","","","img/orange_2bandit_a2.png","70","","70","test","1","","","square","circle","92","89","21","4","0.9325842696629213","","","","","","","","","",""
"null","","383141","SARL_v63vmvzctf","msl000087","freq_resp","","","img/orange_2bandit_a.png","70","img/orange_2bandit_a.png","70","test","","","","","","","","","4","","","","","","","","","","",""
"null","","383296","SARL_v63vmvzctf","msl000087","fixation","","","img/fixation.png","null","","","test","","","","","","","","","","","","","","","","","","","",""
"199","","383499","SARL_v63vmvzctf","msl000087","freq","","","img/orange_2bandit_a2.png","70","","70","test","1","","","square","circle","93","90","22","4","0.9333333333333333","","","","","","","","","",""
"null","","384107","SARL_v63vmvzctf","msl000087","freq_resp","","","img/orange_2bandit_a.png","70","img/orange_2bandit_a.png","70","test","","","","","","","","","4","","","","","","","","","","",""
"null","","384262","SARL_v63vmvzctf","msl000087","fixation","","","img/fixation.png","null","","","test","","","","","","","","","","","","","","","","","","","",""
"299","","384568","SARL_v63vmvzctf","msl000087","freq","","","img/orange_2bandit_a2.png","70","","70","test","1","","","square","circle","94","91","23","4","0.9340659340659341","","","","","","","","","",""
"null","","385076","SARL_v63vmvzctf","msl000087","freq_resp","","","img/orange_2bandit_a.png","70","img/orange_2bandit_a.png","70","test","","","","","","","","","4","","","","","","","","","","",""
"null","","385232","SARL_v63vmvzctf","msl000087","fixation","","","img/fixation.png","null","","","test","","","","","","","","","","","","","","","","","","","",""
"362","","385598","SARL_v63vmvzctf","msl000087","freq","","","img/orange_2bandit_a2.png","70","","70","test","1","","","square","circle","95","92","24","4","0.9347826086956522","","","","","","","","","",""
"null","","386042","SARL_v63vmvzctf","msl000087","freq_resp","","","img/orange_2bandit_a.png","70","img/orange_2bandit_a.png","70","test","","","","","","","","","4","","","","","","","","","","",""
"null","","386197","SARL_v63vmvzctf","msl000087","fixation","","","img/fixation.png","null","","","test","","","","","","","","","","","","","","","","","","","",""
"319","","386520","SARL_v63vmvzctf","msl000087","freq","","","img/orange_2bandit_a2.png","70","","70","test","1","","","square","circle","96","93","25","4","0.9354838709677419","","","","","","","","","",""
"null","","387005","SARL_v63vmvzctf","msl000087","freq_resp","","","img/orange_2bandit_a.png","70","img/orange_2bandit_a.png","70","test","","","","","","","","","4","","","","","","","","","","",""
"null","","387161","SARL_v63vmvzctf","msl000087","fixation","","","img/fixation.png","null","","","test","","","","","","","","","","","","","","","","","","","",""
"285","","387450","SARL_v63vmvzctf","msl000087","freq","","","img/orange_2bandit_a2.png","70","","70","test","1","","","square","circle","97","94","26","4","0.9361702127659575","","","","","","","","","",""
"null","","387971","SARL_v63vmvzctf","msl000087","freq_resp","","","img/orange_2bandit_a.png","70","img/orange_2bandit_a.png","70","test","","","","","","","","","4","","","","","","","","","","",""
"null","","388127","SARL_v63vmvzctf","msl000087","fixation","","","img/fixation.png","null","","","test","","","","","","","","","","","","","","","","","","","",""
"568","","388699","SARL_v63vmvzctf","msl000087","rl","","","img/black_2bandit_a2.png","74","","0","test","","","0","square","circle","98","","0","4","","74","0.8","0.2","0.25210863621760593","0.2","0.8","0.2","square","4","0"
"null","","389455","SARL_v63vmvzctf","msl000087","feedback","","","img/boo_L_a.png","null","","na","test","","","","","","","","","4","","74","0.8","0.2","","","","0.2","","4",""
"615","","390074","SARL_v63vmvzctf","msl000087","freq","","","img/orange_2bandit_a2.png","70","","70","test","1","","","square","circle","99","95","1","5","0.9368421052631579","","","","","","","","","",""
"null","","390265","SARL_v63vmvzctf","msl000087","freq_resp","","","img/orange_2bandit_a.png","70","img/orange_2bandit_a.png","70","test","","","","","","","","","5","","","","","","","","","","",""
"null","","390421","SARL_v63vmvzctf","msl000087","fixation","","","img/fixation.png","null","","","test","","","","","","","","","","","","","","","","","","","",""
"567","","390994","SARL_v63vmvzctf","msl000087","freq","","","img/orange_2bandit_a2.png","70","","70","test","1","","","square","circle","100","96","2","5","0.9375","","","","","","","","","",""
"null","","391232","SARL_v63vmvzctf","msl000087","freq_resp","","","img/orange_2bandit_a.png","70","img/orange_2bandit_a.png","70","test","","","","","","","","","5","","","","","","","","","","",""
"null","","391387","SARL_v63vmvzctf","msl000087","fixation","","","img/fixation.png","null","","","test","","","","","","","","","","","","","","","","","","","",""
"358","","391749","SARL_v63vmvzctf","msl000087","freq","","","img/orange_2bandit_a2.png","70","","70","test","1","","","square","circle","101","97","3","5","0.9381443298969072","","","","","","","","","",""
"null","","392198","SARL_v63vmvzctf","msl000087","freq_resp","","","img/orange_2bandit_a.png","70","img/orange_2bandit_a.png","70","test","","","","","","","","","5","","","","","","","","","","",""
"null","","392355","SARL_v63vmvzctf","msl000087","fixation","","","img/fixation.png","null","","","test","","","","","","","","","","","","","","","","","","","",""
"324","","392683","SARL_v63vmvzctf","msl000087","freq","","","img/orange_2bandit_a2.png","70","","70","test","1","","","square","circle","102","98","4","5","0.9387755102040817","","","","","","","","","",""
"null","","393165","SARL_v63vmvzctf","msl000087","freq_resp","","","img/orange_2bandit_a.png","70","img/orange_2bandit_a.png","70","test","","","","","","","","","5","","","","","","","","","","",""
"null","","393321","SARL_v63vmvzctf","msl000087","fixation","","","img/fixation.png","null","","","test","","","","","","","","","","","","","","","","","","","",""
"337","","393663","SARL_v63vmvzctf","msl000087","freq","","","img/orange_2bandit_a2.png","70","","70","test","1","","","square","circle","103","99","5","5","0.9393939393939394","","","","","","","","","",""
"null","","394132","SARL_v63vmvzctf","msl000087","freq_resp","","","img/orange_2bandit_a.png","70","img/orange_2bandit_a.png","70","test","","","","","","","","","5","","","","","","","","","","",""
"null","","394288","SARL_v63vmvzctf","msl000087","fixation","","","img/fixation.png","null","","","test","","","","","","","","","","","","","","","","","","","",""
"308","","394602","SARL_v63vmvzctf","msl000087","freq","","","img/orange_2bandit_a2.png","70","","70","test","1","","","square","circle","104","100","6","5","0.94","","","","","","","","","",""
"null","","395100","SARL_v63vmvzctf","msl000087","freq_resp","","","img/orange_2bandit_a.png","70","img/orange_2bandit_a.png","70","test","","","","","","","","","5","","","","","","","","","","",""
"null","","395256","SARL_v63vmvzctf","msl000087","fixation","","","img/fixation.png","null","","","test","","","","","","","","","","","","","","","","","","","",""
"189","","395450","SARL_v63vmvzctf","msl000087","freq","","","img/orange_2bandit_a2.png","70","","70","test","1","","","square","circle","105","101","7","5","0.9405940594059405","","","","","","","","","",""
"null","","396065","SARL_v63vmvzctf","msl000087","freq_resp","","","img/orange_2bandit_a.png","70","img/orange_2bandit_a.png","70","test","","","","","","","","","5","","","","","","","","","","",""
"null","","396221","SARL_v63vmvzctf","msl000087","fixation","","","img/fixation.png","null","","","test","","","","","","","","","","","","","","","","","","","",""
"301","","396528","SARL_v63vmvzctf","msl000087","freq","","","img/orange_2bandit_a2.png","70","","70","test","1","","","square","circle","106","102","8","5","0.9411764705882353","","","","","","","","","",""
"null","","397032","SARL_v63vmvzctf","msl000087","freq_resp","","","img/orange_2bandit_a.png","70","img/orange_2bandit_a.png","70","test","","","","","","","","","5","","","","","","","","","","",""
"null","","397188","SARL_v63vmvzctf","msl000087","fixation","","","img/fixation.png","null","","","test","","","","","","","","","","","","","","","","","","","",""
"315","","397507","SARL_v63vmvzctf","msl000087","freq","","","img/orange_2bandit_a2.png","70","","70","test","1","","","square","circle","107","103","9","5","0.941747572815534","","","","","","","","","",""
"null","","397998","SARL_v63vmvzctf","msl000087","freq_resp","","","img/orange_2bandit_a.png","70","img/orange_2bandit_a.png","70","test","","","","","","","","","5","","","","","","","","","","",""
"null","","398154","SARL_v63vmvzctf","msl000087","fixation","","","img/fixation.png","null","","","test","","","","","","","","","","","","","","","","","","","",""
"306","","398466","SARL_v63vmvzctf","msl000087","freq","","","img/orange_2bandit_a2.png","70","","70","test","1","","","square","circle","108","104","10","5","0.9423076923076923","","","","","","","","","",""
"null","","398965","SARL_v63vmvzctf","msl000087","freq_resp","","","img/orange_2bandit_a.png","70","img/orange_2bandit_a.png","70","test","","","","","","","","","5","","","","","","","","","","",""
"null","","399121","SARL_v63vmvzctf","msl000087","fixation","","","img/fixation.png","null","","","test","","","","","","","","","","","","","","","","","","","",""
"417","","399543","SARL_v63vmvzctf","msl000087","infreq","","","img/green_2bandit_a2.png","68","","68","test","1","","","square","circle","109","105","11","5","0.9428571428571428","","","","","","","","","",""
"null","","399932","SARL_v63vmvzctf","msl000087","infreq_resp","","","img/green_2bandit_a.png","68","img/green_2bandit_a.png","68","test","","","","","","","","","5","","","","","","","","","","",""
"null","","400089","SARL_v63vmvzctf","msl000087","fixation","","","img/fixation.png","null","","","test","","","","","","","","","","","","","","","","","","","",""
"446","","400540","SARL_v63vmvzctf","msl000087","freq","","","img/orange_2bandit_a2.png","70","","70","test","1","","","square","circle","110","106","12","5","0.9433962264150944","","","","","","","","","",""
"null","","400899","SARL_v63vmvzctf","msl000087","freq_resp","","","img/orange_2bandit_a.png","70","img/orange_2bandit_a.png","70","test","","","","","","","","","5","","","","","","","","","","",""
"null","","401054","SARL_v63vmvzctf","msl000087","fixation","","","img/fixation.png","null","","","test","","","","","","","","","","","","","","","","","","","",""
"321","","401380","SARL_v63vmvzctf","msl000087","freq","","","img/orange_2bandit_a2.png","70","","70","test","1","","","square","circle","111","107","13","5","0.9439252336448598","","","","","","","","","",""
"null","","401866","SARL_v63vmvzctf","msl000087","freq_resp","","","img/orange_2bandit_a.png","70","img/orange_2bandit_a.png","70","test","","","","","","","","","5","","","","","","","","","","",""
"null","","402020","SARL_v63vmvzctf","msl000087","fixation","","","img/fixation.png","null","","","test","","","","","","","","","","","","","","","","","","","",""
"140","","402165","SARL_v63vmvzctf","msl000087","freq","","","img/orange_2bandit_a2.png","70","","70","test","1","","","square","circle","112","108","14","5","0.9444444444444444","","","","","","","","","",""
"null","","402832","SARL_v63vmvzctf","msl000087","freq_resp","","","img/orange_2bandit_a.png","70","img/orange_2bandit_a.png","70","test","","","","","","","","","5","","","","","","","","","","",""
"null","","402987","SARL_v63vmvzctf","msl000087","fixation","","","img/fixation.png","null","","","test","","","","","","","","","","","","","","","","","","","",""
"186","","403178","SARL_v63vmvzctf","msl000087","freq","","","img/orange_2bandit_a2.png","70","","70","test","1","","","square","circle","113","109","15","5","0.944954128440367","","","","","","","","","",""
"null","","403799","SARL_v63vmvzctf","msl000087","freq_resp","","","img/orange_2bandit_a.png","70","img/orange_2bandit_a.png","70","test","","","","","","","","","5","","","","","","","","","","",""
"null","","403954","SARL_v63vmvzctf","msl000087","fixation","","","img/fixation.png","null","","","test","","","","","","","","","","","","","","","","","","","",""
"132","","404091","SARL_v63vmvzctf","msl000087","freq","","","img/orange_2bandit_a2.png","70","","70","test","1","","","square","circle","114","110","16","5","0.9454545454545454","","","","","","","","","",""
"null","","404765","SARL_v63vmvzctf","msl000087","freq_resp","","","img/orange_2bandit_a.png","70","img/orange_2bandit_a.png","70","test","","","","","","","","","5","","","","","","","","","","",""
"null","","404921","SARL_v63vmvzctf","msl000087","fixation","","","img/fixation.png","null","","","test","","","","","","","","","","","","","","","","","","","",""
"283","","405210","SARL_v63vmvzctf","msl000087","freq","","","img/orange_2bandit_a2.png","70","","70","test","1","","","square","circle","115","111","17","5","0.9459459459459459","","","","","","","","","",""
"null","","405732","SARL_v63vmvzctf","msl000087","freq_resp","","","img/orange_2bandit_a.png","70","img/orange_2bandit_a.png","70","test","","","","","","","","","5","","","","","","","","","","",""
"null","","405888","SARL_v63vmvzctf","msl000087","fixation","","","img/fixation.png","null","","","test","","","","","","","","","","","","","","","","","","","",""
"116","","406009","SARL_v63vmvzctf","msl000087","freq","","","img/orange_2bandit_a2.png","70","","70","test","1","","","square","circle","116","112","18","5","0.9464285714285714","","","","","","","","","",""
"null","","406700","SARL_v63vmvzctf","msl000087","freq_resp","","","img/orange_2bandit_a.png","70","img/orange_2bandit_a.png","70","test","","","","","","","","","5","","","","","","","","","","",""
"null","","406855","SARL_v63vmvzctf","msl000087","fixation","","","img/fixation.png","null","","","test","","","","","","","","","","","","","","","","","","","",""
"103","","406963","SARL_v63vmvzctf","msl000087","freq","","","img/orange_2bandit_a2.png","70","","70","test","1","","","square","circle","117","113","19","5","0.9469026548672567","","","","","","","","","",""
"null","","407665","SARL_v63vmvzctf","msl000087","freq_resp","","","img/orange_2bandit_a.png","70","img/orange_2bandit_a.png","70","test","","","","","","","","","5","","","","","","","","","","",""
"null","","407821","SARL_v63vmvzctf","msl000087","fixation","","","img/fixation.png","null","","","test","","","","","","","","","","","","","","","","","","","",""
"548","","408372","SARL_v63vmvzctf","msl000087","infreq","","","img/green_2bandit_a2.png","68","","68","test","1","","","square","circle","118","114","20","5","0.9473684210526315","","","","","","","","","",""
"null","","408630","SARL_v63vmvzctf","msl000087","infreq_resp","","","img/green_2bandit_a.png","68","img/green_2bandit_a.png","68","test","","","","","","","","","5","","","","","","","","","","",""
"null","","408785","SARL_v63vmvzctf","msl000087","fixation","","","img/fixation.png","null","","","test","","","","","","","","","","","","","","","","","","","",""
"577","","409365","SARL_v63vmvzctf","msl000087","freq","","","img/orange_2bandit_a2.png","70","","70","test","1","","","square","circle","119","115","21","5","0.9478260869565217","","","","","","","","","",""
"null","","409595","SARL_v63vmvzctf","msl000087","freq_resp","","","img/orange_2bandit_a.png","70","img/orange_2bandit_a.png","70","test","","","","","","","","","5","","","","","","","","","","",""
"null","","409750","SARL_v63vmvzctf","msl000087","fixation","","","img/fixation.png","null","","","test","","","","","","","","","","","","","","","","","","","",""
"324","","410079","SARL_v63vmvzctf","msl000087","freq","","","img/orange_2bandit_a2.png","70","","70","test","1","","","square","circle","120","116","22","5","0.9482758620689655","","","","","","","","","",""
"null","","410560","SARL_v63vmvzctf","msl000087","freq_resp","","","img/orange_2bandit_a.png","70","img/orange_2bandit_a.png","70","test","","","","","","","","","5","","","","","","","","","","",""
"null","","410716","SARL_v63vmvzctf","msl000087","fixation","","","img/fixation.png","null","","","test","","","","","","","","","","","","","","","","","","","",""
"292","","411013","SARL_v63vmvzctf","msl000087","freq","","","img/orange_2bandit_a2.png","70","","70","test","1","","","square","circle","121","117","23","5","0.9487179487179487","","","","","","","","","",""
"null","","411525","SARL_v63vmvzctf","msl000087","freq_resp","","","img/orange_2bandit_a.png","70","img/orange_2bandit_a.png","70","test","","","","","","","","","5","","","","","","","","","","",""
"null","","411680","SARL_v63vmvzctf","msl000087","fixation","","","img/fixation.png","null","","","test","","","","","","","","","","","","","","","","","","","",""
"622","","412307","SARL_v63vmvzctf","msl000087","rl","","","img/black_2bandit_a2.png","75","","0","test","","","1","square","circle","122","","0","5","","75","0.8","0.2","0.226688538838817","0.2","0.8","0.8","circle","5","0"
"null","","413063","SARL_v63vmvzctf","msl000087","feedback","","","img/yay_R_a.png","null","","na","test","","","","","","","","","5","","75","0.8","0.2","","","","0.8","","5",""
"542","","413612","SARL_v63vmvzctf","msl000087","freq","","","img/orange_2bandit_a2.png","70","","70","test","1","","","square","circle","123","118","1","6","0.9491525423728814","","","","","","","","","",""
"null","","413875","SARL_v63vmvzctf","msl000087","freq_resp","","","img/orange_2bandit_a.png","70","img/orange_2bandit_a.png","70","test","","","","","","","","","6","","","","","","","","","","",""
"null","","414031","SARL_v63vmvzctf","msl000087","fixation","","","img/fixation.png","null","","","test","","","","","","","","","","","","","","","","","","","",""
"545","","414581","SARL_v63vmvzctf","msl000087","infreq","","","img/green_2bandit_a2.png","68","","68","test","1","","","square","circle","124","119","2","6","0.9495798319327731","","","","","","","","","",""
"null","","414842","SARL_v63vmvzctf","msl000087","infreq_resp","","","img/green_2bandit_a.png","68","img/green_2bandit_a.png","68","test","","","","","","","","","6","","","","","","","","","","",""
"null","","414996","SARL_v63vmvzctf","msl000087","fixation","","","img/fixation.png","null","","","test","","","","","","","","","","","","","","","","","","","",""
"478","","415480","SARL_v63vmvzctf","msl000087","freq","","","img/orange_2bandit_a2.png","70","","70","test","1","","","square","circle","125","120","3","6","0.95","","","","","","","","","",""
"null","","415807","SARL_v63vmvzctf","msl000087","freq_resp","","","img/orange_2bandit_a.png","70","img/orange_2bandit_a.png","70","test","","","","","","","","","6","","","","","","","","","","",""
"null","","415962","SARL_v63vmvzctf","msl000087","fixation","","","img/fixation.png","null","","","test","","","","","","","","","","","","","","","","","","","",""
"357","","416324","SARL_v63vmvzctf","msl000087","freq","","","img/orange_2bandit_a2.png","70","","70","test","1","","","square","circle","126","121","4","6","0.9504132231404959","","","","","","","","","",""
"null","","416773","SARL_v63vmvzctf","msl000087","freq_resp","","","img/orange_2bandit_a.png","70","img/orange_2bandit_a.png","70","test","","","","","","","","","6","","","","","","","","","","",""
"null","","416929","SARL_v63vmvzctf","msl000087","fixation","","","img/fixation.png","null","","","test","","","","","","","","","","","","","","","","","","","",""
"162","","417095","SARL_v63vmvzctf","msl000087","freq","","","img/orange_2bandit_a2.png","70","","70","test","1","","","square","circle","127","122","5","6","0.9508196721311475","","","","","","","","","",""
"null","","417739","SARL_v63vmvzctf","msl000087","freq_resp","","","img/orange_2bandit_a.png","70","img/orange_2bandit_a.png","70","test","","","","","","","","","6","","","","","","","","","","",""
"null","","417895","SARL_v63vmvzctf","msl000087","fixation","","","img/fixation.png","null","","","test","","","","","","","","","","","","","","","","","","","",""
"567","","418467","SARL_v63vmvzctf","msl000087","freq","","","img/orange_2bandit_a2.png","70","","70","test","1","","","square","circle","128","123","6","6","0.9512195121951219","","","","","","","","","",""
"null","","418707","SARL_v63vmvzctf","msl000087","freq_resp","","","img/orange_2bandit_a.png","70","img/orange_2bandit_a.png","70","test","","","","","","","","","6","","","","","","","","","","",""
"null","","418862","SARL_v63vmvzctf","msl000087","fixation","","","img/fixation.png","null","","","test","","","","","","","","","","","","","","","","","","","",""
"212","","419079","SARL_v63vmvzctf","msl000087","freq","","","img/orange_2bandit_a2.png","70","","70","test","1","","","square","circle","129","124","7","6","0.9516129032258065","","","","","","","","","",""
"null","","419671","SARL_v63vmvzctf","msl000087","freq_resp","","","img/orange_2bandit_a.png","70","img/orange_2bandit_a.png","70","test","","","","","","","","","6","","","","","","","","","","",""
"null","","419827","SARL_v63vmvzctf","msl000087","fixation","","","img/fixation.png","null","","","test","","","","","","","","","","","","","","","","","","","",""
"95","","419927","SARL_v63vmvzctf","msl000087","freq","","","img/orange_2bandit_a2.png","70","","70","test","1","","","square","circle","130","125","8","6","0.952","","","","","","","","","",""
"null","","420636","SARL_v63vmvzctf","msl000087","freq_resp","","","img/orange_2bandit_a.png","70","img/orange_2bandit_a.png","70","test","","","","","","","","","6","","","","","","","","","","",""
"null","","420792","SARL_v63vmvzctf","msl000087","fixation","","","img/fixation.png","null","","","test","","","","","","","","","","","","","","","","","","","",""
"40","","420838","SARL_v63vmvzctf","msl000087","freq","","","img/orange_2bandit_a2.png","70","","70","test","1","","","square","circle","131","126","9","6","0.9523809523809523","","","","","","","","","",""
"null","","421603","SARL_v63vmvzctf","msl000087","freq_resp","","","img/orange_2bandit_a.png","70","img/orange_2bandit_a.png","70","test","","","","","","","","","6","","","","","","","","","","",""
"null","","421759","SARL_v63vmvzctf","msl000087","fixation","","","img/fixation.png","null","","","test","","","","","","","","","","","","","","","","","","","",""
"742","","422507","SARL_v63vmvzctf","msl000087","freq","","","img/orange_2bandit_a2.png","70","","70","test","1","","","square","circle","132","127","10","6","0.952755905511811","","","","","","","","","",""
"null","","422570","SARL_v63vmvzctf","msl000087","freq_resp","","","img/orange_2bandit_a.png","70","img/orange_2bandit_a.png","70","test","","","","","","","","","6","","","","","","","","","","",""
"null","","422726","SARL_v63vmvzctf","msl000087","fixation","","","img/fixation.png","null","","","test","","","","","","","","","","","","","","","","","","","",""
"541","","423273","SARL_v63vmvzctf","msl000087","freq","","","img/orange_2bandit_a2.png","70","","70","test","1","","","square","circle","133","128","11","6","0.953125","","","","","","","","","",""
"null","","423537","SARL_v63vmvzctf","msl000087","freq_resp","","","img/orange_2bandit_a.png","70","img/orange_2bandit_a.png","70","test","","","","","","","","","6","","","","","","","","","","",""
"null","","423693","SARL_v63vmvzctf","msl000087","fixation","","","img/fixation.png","null","","","test","","","","","","","","","","","","","","","","","","","",""
"365","","424064","SARL_v63vmvzctf","msl000087","freq","","","img/orange_2bandit_a2.png","70","","70","test","1","","","square","circle","134","129","12","6","0.9534883720930233","","","","","","","","","",""
"null","","424504","SARL_v63vmvzctf","msl000087","freq_resp","","","img/orange_2bandit_a.png","70","img/orange_2bandit_a.png","70","test","","","","","","","","","6","","","","","","","","","","",""
"null","","424660","SARL_v63vmvzctf","msl000087","fixation","","","img/fixation.png","null","","","test","","","","","","","","","","","","","","","","","","","",""
"140","","424805","SARL_v63vmvzctf","msl000087","infreq","","","img/green_2bandit_a2.png","70","","68","test","0","","","square","circle","135","130","13","6","0.9461538461538461","","","","","","","","","",""
"null","","425470","SARL_v63vmvzctf","msl000087","infreq_resp","","","img/green_2bandit_a.png","70","img/green_2bandit_a.png","68","test","","","","","","","","","6","","","","","","","","","","",""
"null","","425626","SARL_v63vmvzctf","msl000087","fixation","","","img/fixation.png","null","","","test","","","","","","","","","","","","","","","","","","","",""
"null","","426431","SARL_v63vmvzctf","msl000087","freq","","","img/orange_2bandit_a2.png","null","","70","test","0","","","square","circle","136","131","14","6","0.9389312977099237","","","","","","","","","",""
"null","","426586","SARL_v63vmvzctf","msl000087","fixation","","","img/fixation.png","null","","","test","","","","","","","","","","","","","","","","","","","",""
"441","","427033","SARL_v63vmvzctf","msl000087","freq","","","img/orange_2bandit_a2.png","70","","70","test","1","","","square","circle","137","132","15","6","0.9393939393939394","","","","","","","","","",""
"null","","427397","SARL_v63vmvzctf","msl000087","freq_resp","","","img/orange_2bandit_a.png","70","img/orange_2bandit_a.png","70","test","","","","","","","","","6","","","","","","","","","","",""
"null","","427552","SARL_v63vmvzctf","msl000087","fixation","","","img/fixation.png","null","","","test","","","","","","","","","","","","","","","","","","","",""
"320","","427877","SARL_v63vmvzctf","msl000087","freq","","","img/orange_2bandit_a2.png","70","","70","test","1","","","square","circle","138","133","16","6","0.9398496240601504","","","","","","","","","",""
"null","","428362","SARL_v63vmvzctf","msl000087","freq_resp","","","img/orange_2bandit_a.png","70","img/orange_2bandit_a.png","70","test","","","","","","","","","6","","","","","","","","","","",""
"null","","428518","SARL_v63vmvzctf","msl000087","fixation","","","img/fixation.png","null","","","test","","","","","","","","","","","","","","","","","","","",""
"331","","428856","SARL_v63vmvzctf","msl000087","freq","","","img/orange_2bandit_a2.png","70","","70","test","1","","","square","circle","139","134","17","6","0.9402985074626866","","","","","","","","","",""
"null","","429330","SARL_v63vmvzctf","msl000087","freq_resp","","","img/orange_2bandit_a.png","70","img/orange_2bandit_a.png","70","test","","","","","","","","","6","","","","","","","","","","",""
"null","","429485","SARL_v63vmvzctf","msl000087","fixation","","","img/fixation.png","null","","","test","","","","","","","","","","","","","","","","","","","",""
"337","","429828","SARL_v63vmvzctf","msl000087","freq","","","img/orange_2bandit_a2.png","70","","70","test","1","","","square","circle","140","135","18","6","0.9407407407407408","","","","","","","","","",""
"null","","430296","SARL_v63vmvzctf","msl000087","freq_resp","","","img/orange_2bandit_a.png","70","img/orange_2bandit_a.png","70","test","","","","","","","","","6","","","","","","","","","","",""
"null","","430453","SARL_v63vmvzctf","msl000087","fixation","","","img/fixation.png","null","","","test","","","","","","","","","","","","","","","","","","","",""
"319","","430777","SARL_v63vmvzctf","msl000087","freq","","","img/orange_2bandit_a2.png","70","","70","test","1","","","square","circle","141","136","19","6","0.9411764705882353","","","","","","","","","",""
"null","","431265","SARL_v63vmvzctf","msl000087","freq_resp","","","img/orange_2bandit_a.png","70","img/orange_2bandit_a.png","70","test","","","","","","","","","6","","","","","","","","","","",""
"null","","431420","SARL_v63vmvzctf","msl000087","fixation","","","img/fixation.png","null","","","test","","","","","","","","","","","","","","","","","","","",""
"449","","431875","SARL_v63vmvzctf","msl000087","infreq","","","img/green_2bandit_a2.png","68","","68","test","1","","","square","circle","142","137","20","6","0.9416058394160584","","","","","","","","","",""
"null","","432231","SARL_v63vmvzctf","msl000087","infreq_resp","","","img/green_2bandit_a.png","68","img/green_2bandit_a.png","68","test","","","","","","","","","6","","","","","","","","","","",""
"null","","432386","SARL_v63vmvzctf","msl000087","fixation","","","img/fixation.png","null","","","test","","","","","","","","","","","","","","","","","","","",""
"394","","432785","SARL_v63vmvzctf","msl000087","freq","","","img/orange_2bandit_a2.png","70","","70","test","1","","","square","circle","143","138","21","6","0.9420289855072463","","","","","","","","","",""
"null","","433196","SARL_v63vmvzctf","msl000087","freq_resp","","","img/orange_2bandit_a.png","70","img/orange_2bandit_a.png","70","test","","","","","","","","","6","","","","","","","","","","",""
"null","","433351","SARL_v63vmvzctf","msl000087","fixation","","","img/fixation.png","null","","","test","","","","","","","","","","","","","","","","","","","",""
"337","","433692","SARL_v63vmvzctf","msl000087","freq","","","img/orange_2bandit_a2.png","70","","70","test","1","","","square","circle","144","139","22","6","0.9424460431654677","","","","","","","","","",""
"null","","434160","SARL_v63vmvzctf","msl000087","freq_resp","","","img/orange_2bandit_a.png","70","img/orange_2bandit_a.png","70","test","","","","","","","","","6","","","","","","","","","","",""
"null","","434316","SARL_v63vmvzctf","msl000087","fixation","","","img/fixation.png","null","","","test","","","","","","","","","","","","","","","","","","","",""
"350","","434671","SARL_v63vmvzctf","msl000087","freq","","","img/orange_2bandit_a2.png","70","","70","test","1","","","square","circle","145","140","23","6","0.9428571428571428","","","","","","","","","",""
"null","","435126","SARL_v63vmvzctf","msl000087","freq_resp","","","img/orange_2bandit_a.png","70","img/orange_2bandit_a.png","70","test","","","","","","","","","6","","","","","","","","","","",""
"null","","435283","SARL_v63vmvzctf","msl000087","fixation","","","img/fixation.png","null","","","test","","","","","","","","","","","","","","","","","","","",""
"326","","435613","SARL_v63vmvzctf","msl000087","freq","","","img/orange_2bandit_a2.png","70","","70","test","1","","","square","circle","146","141","24","6","0.9432624113475178","","","","","","","","","",""
"null","","436092","SARL_v63vmvzctf","msl000087","freq_resp","","","img/orange_2bandit_a.png","70","img/orange_2bandit_a.png","70","test","","","","","","","","","6","","","","","","","","","","",""
"null","","436247","SARL_v63vmvzctf","msl000087","fixation","","","img/fixation.png","null","","","test","","","","","","","","","","","","","","","","","","","",""
"317","","436570","SARL_v63vmvzctf","msl000087","freq","","","img/orange_2bandit_a2.png","70","","70","test","1","","","square","circle","147","142","25","6","0.9436619718309859","","","","","","","","","",""
"null","","437059","SARL_v63vmvzctf","msl000087","freq_resp","","","img/orange_2bandit_a.png","70","img/orange_2bandit_a.png","70","test","","","","","","","","","6","","","","","","","","","","",""
"null","","437215","SARL_v63vmvzctf","msl000087","fixation","","","img/fixation.png","null","","","test","","","","","","","","","","","","","","","","","","","",""
"344","","437563","SARL_v63vmvzctf","msl000087","freq","","","img/orange_2bandit_a2.png","70","","70","test","1","","","square","circle","148","143","26","6","0.9440559440559441","","","","","","","","","",""
"null","","438026","SARL_v63vmvzctf","msl000087","freq_resp","","","img/orange_2bandit_a.png","70","img/orange_2bandit_a.png","70","test","","","","","","","","","6","","","","","","","","","","",""
"null","","438182","SARL_v63vmvzctf","msl000087","fixation","","","img/fixation.png","null","","","test","","","","","","","","","","","","","","","","","","","",""
