"rt","responses","time_elapsed","subject","demoID","trialType","rlType","attType","stimulus","key_press","stim","corrresp","phase","corr","pracCounter","reward","bandOne","bandTwo","trialNum","attentionNum","attentionRunNum","blockNum","performance","bandChosen","circleVal","squareVal","coin","bandOneVal","bandTwoVal","pReward","shapeChosen","rlNum","badFlag"
"431545","{""Q0"":""msl000055""}","431569","SARL_v6ps9ech69","msl000055","","","","","","","","","","","","","","","","","","","","","","","","","","","",""
"18700","","450276","SARL_v6ps9ech69","msl000055","","","","","","","","","","","","","","","","","","","","","","","","","","","",""
"","","452918","SARL_v6ps9ech69","msl000055","fullscreen","fullscreen","fullscreen","","","","","","","","","","","","","","","","","","","","","","","","",""
"76889","","529811","SARL_v6ps9ech69","msl000055","","","","","","","","","","","","","","","","","","","","","","","","","","","",""
"789","","530608","SARL_v6ps9ech69","msl000055","freqPrac","","","img/green_2bandit_b2.png","70","img/green_2bandit_b2.png","70","prac","1","0","","","","","","","","","","","","","","","","","",""
"789","","530624","SARL_v6ps9ech69","msl000055","freqPrac_resp","","","img/green_2bandit_b.png","70","img/green_2bandit_b.png","70","prac","","","","","","","","","","","","","","","","","","","",""
"null","","530782","SARL_v6ps9ech69","msl000055","fixation","","","img/fixation.png","null","","","prac","","","","","","","","","","","","","","","","","","","",""
"524","","531311","SARL_v6ps9ech69","msl000055","infreqPrac","","","img/orange_2bandit_b2.png","68","img/orange_2bandit_b2.png","68","prac","1","0","","","","","","","","","","","","","","","","","",""
"524","","531593","SARL_v6ps9ech69","msl000055","infreqPrac_resp","","","img/orange_2bandit_b.png","68","img/orange_2bandit_b.png","68","prac","","","","","","","","","","","","","","","","","","","",""
"null","","531748","SARL_v6ps9ech69","msl000055","fixation","","","img/fixation.png","null","","","prac","","","","","","","","","","","","","","","","","","","",""
"589","","532343","SARL_v6ps9ech69","msl000055","freqPrac","","","img/green_2bandit_b2.png","70","img/green_2bandit_b2.png","70","prac","1","0","","","","","","","","","","","","","","","","","",""
"589","","532560","SARL_v6ps9ech69","msl000055","freqPrac_resp","","","img/green_2bandit_b.png","70","img/green_2bandit_b.png","70","prac","","","","","","","","","","","","","","","","","","","",""
"null","","532716","SARL_v6ps9ech69","msl000055","fixation","","","img/fixation.png","null","","","prac","","","","","","","","","","","","","","","","","","","",""
"647","","533368","SARL_v6ps9ech69","msl000055","infreqPrac","","","img/orange_2bandit_b2.png","68","img/orange_2bandit_b2.png","68","prac","1","0","","","","","","","","","","","","","","","","","",""
"647","","533526","SARL_v6ps9ech69","msl000055","infreqPrac_resp","","","img/orange_2bandit_b.png","68","img/orange_2bandit_b.png","68","prac","","","","","","","","","","","","","","","","","","","",""
"null","","533682","SARL_v6ps9ech69","msl000055","fixation","","","img/fixation.png","null","","","prac","","","","","","","","","","","","","","","","","","","",""
"560","","534247","SARL_v6ps9ech69","msl000055","infreqPrac","","","img/orange_2bandit_b2.png","68","img/orange_2bandit_b2.png","68","prac","1","0","","","","","","","","","","","","","","","","","",""
"560","","534492","SARL_v6ps9ech69","msl000055","infreqPrac_resp","","","img/orange_2bandit_b.png","68","img/orange_2bandit_b.png","68","prac","","","","","","","","","","","","","","","","","","","",""
"null","","534647","SARL_v6ps9ech69","msl000055","fixation","","","img/fixation.png","null","","","prac","","","","","","","","","","","","","","","","","","","",""
"390","","535043","SARL_v6ps9ech69","msl000055","infreqPrac","","","img/orange_2bandit_b2.png","68","img/orange_2bandit_b2.png","68","prac","1","0","","","","","","","","","","","","","","","","","",""
"390","","535459","SARL_v6ps9ech69","msl000055","infreqPrac_resp","","","img/orange_2bandit_b.png","68","img/orange_2bandit_b.png","68","prac","","","","","","","","","","","","","","","","","","","",""
"null","","535614","SARL_v6ps9ech69","msl000055","fixation","","","img/fixation.png","null","","","prac","","","","","","","","","","","","","","","","","","","",""
"434","","536052","SARL_v6ps9ech69","msl000055","freqPrac","","","img/green_2bandit_b2.png","70","img/green_2bandit_b2.png","70","prac","1","0","","","","","","","","","","","","","","","","","",""
"434","","536424","SARL_v6ps9ech69","msl000055","freqPrac_resp","","","img/green_2bandit_b.png","70","img/green_2bandit_b.png","70","prac","","","","","","","","","","","","","","","","","","","",""
"null","","536579","SARL_v6ps9ech69","msl000055","fixation","","","img/fixation.png","null","","","prac","","","","","","","","","","","","","","","","","","","",""
"584","","537168","SARL_v6ps9ech69","msl000055","infreqPrac","","","img/orange_2bandit_b2.png","68","img/orange_2bandit_b2.png","68","prac","1","0","","","","","","","","","","","","","","","","","",""
"584","","537389","SARL_v6ps9ech69","msl000055","infreqPrac_resp","","","img/orange_2bandit_b.png","68","img/orange_2bandit_b.png","68","prac","","","","","","","","","","","","","","","","","","","",""
"null","","537545","SARL_v6ps9ech69","msl000055","fixation","","","img/fixation.png","null","","","prac","","","","","","","","","","","","","","","","","","","",""
"430","","537978","SARL_v6ps9ech69","msl000055","freqPrac","","","img/green_2bandit_b2.png","70","img/green_2bandit_b2.png","70","prac","1","0","","","","","","","","","","","","","","","","","",""
"430","","538353","SARL_v6ps9ech69","msl000055","freqPrac_resp","","","img/green_2bandit_b.png","70","img/green_2bandit_b.png","70","prac","","","","","","","","","","","","","","","","","","","",""
"null","","538510","SARL_v6ps9ech69","msl000055","fixation","","","img/fixation.png","null","","","prac","","","","","","","","","","","","","","","","","","","",""
"379","","538893","SARL_v6ps9ech69","msl000055","freqPrac","","","img/green_2bandit_b2.png","70","img/green_2bandit_b2.png","70","prac","1","0","","","","","","","","","","","","","","","","","",""
"379","","539319","SARL_v6ps9ech69","msl000055","freqPrac_resp","","","img/green_2bandit_b.png","70","img/green_2bandit_b.png","70","prac","","","","","","","","","","","","","","","","","","","",""
"null","","539475","SARL_v6ps9ech69","msl000055","fixation","","","img/fixation.png","null","","","prac","","","","","","","","","","","","","","","","","","","",""
"49705","","589185","SARL_v6ps9ech69","msl000055","","","","","","","","prac","","","","","","","","","","","","","","","","","","","",""
"813","","590002","SARL_v6ps9ech69","msl000055","rlPractice","","","img/black_2bandit_b2.png","75","img/black_2bandit_b2.png","","prac","","","75","","","","","","","","","","","","","","","","",""
"null","","590758","SARL_v6ps9ech69","msl000055","feedback","","","img/yay_R_b.png","null","","na","prac","","","","","","","","","","","","","","","","","","","",""
"null","","590914","SARL_v6ps9ech69","msl000055","fixation","","","img/fixation.png","null","","","prac","","","","","","","","","","","","","","","","","","","",""
"582","","591499","SARL_v6ps9ech69","msl000055","rlPractice","","","img/black_2bandit_b2.png","75","img/black_2bandit_b2.png","","prac","","","75","","","","","","","","","","","","","","","","",""
"null","","592256","SARL_v6ps9ech69","msl000055","feedback","","","img/yay_R_b.png","null","","na","prac","","","","","","","","","","","","","","","","","","","",""
"null","","592413","SARL_v6ps9ech69","msl000055","fixation","","","img/fixation.png","null","","","prac","","","","","","","","","","","","","","","","","","","",""
"431","","592848","SARL_v6ps9ech69","msl000055","rlPractice","","","img/black_2bandit_b2.png","75","img/black_2bandit_b2.png","","prac","","","75","","","","","","","","","","","","","","","","",""
"null","","593604","SARL_v6ps9ech69","msl000055","feedback","","","img/yay_R_b.png","null","","na","prac","","","","","","","","","","","","","","","","","","","",""
"null","","593760","SARL_v6ps9ech69","msl000055","fixation","","","img/fixation.png","null","","","prac","","","","","","","","","","","","","","","","","","","",""
"365","","594129","SARL_v6ps9ech69","msl000055","rlPractice","","","img/black_2bandit_b2.png","75","img/black_2bandit_b2.png","","prac","","","75","","","","","","","","","","","","","","","","",""
"null","","594884","SARL_v6ps9ech69","msl000055","feedback","","","img/yay_R_b.png","null","","na","prac","","","","","","","","","","","","","","","","","","","",""
"null","","595040","SARL_v6ps9ech69","msl000055","fixation","","","img/fixation.png","null","","","prac","","","","","","","","","","","","","","","","","","","",""
"410","","595454","SARL_v6ps9ech69","msl000055","rlPractice","","","img/black_2bandit_b2.png","75","img/black_2bandit_b2.png","","prac","","","75","","","","","","","","","","","","","","","","",""
"null","","596210","SARL_v6ps9ech69","msl000055","feedback","","","img/yay_R_b.png","null","","na","prac","","","","","","","","","","","","","","","","","","","",""
"null","","596366","SARL_v6ps9ech69","msl000055","fixation","","","img/fixation.png","null","","","prac","","","","","","","","","","","","","","","","","","","",""
"337","","596707","SARL_v6ps9ech69","msl000055","rlPractice","","","img/black_2bandit_b2.png","75","img/black_2bandit_b2.png","","prac","","","75","","","","","","","","","","","","","","","","",""
"null","","597464","SARL_v6ps9ech69","msl000055","feedback","","","img/yay_R_b.png","null","","na","prac","","","","","","","","","","","","","","","","","","","",""
"null","","597619","SARL_v6ps9ech69","msl000055","fixation","","","img/fixation.png","null","","","prac","","","","","","","","","","","","","","","","","","","",""
"294","","597919","SARL_v6ps9ech69","msl000055","rlPractice","","","img/black_2bandit_b2.png","75","img/black_2bandit_b2.png","","prac","","","75","","","","","","","","","","","","","","","","",""
"null","","598675","SARL_v6ps9ech69","msl000055","feedback","","","img/yay_R_b.png","null","","na","prac","","","","","","","","","","","","","","","","","","","",""
"null","","598831","SARL_v6ps9ech69","msl000055","fixation","","","img/fixation.png","null","","","prac","","","","","","","","","","","","","","","","","","","",""
"11759","","610594","SARL_v6ps9ech69","msl000055","","","","","","","","prac","","","","","","","","","","","","","","","","","","","",""
"null","","611399","SARL_v6ps9ech69","msl000055","mixAttFreqPrac","","","img/green_2bandit_b2.png","null","img/green_2bandit_b2.png","70","prac","","","","","","","","","","","","","","","","","","","",""
"38","","611555","SARL_v6ps9ech69","msl000055","fixation","","","img/fixation.png","70","","","prac","","","","","","","","","","","","","","","","","","","",""
"518","","612078","SARL_v6ps9ech69","msl000055","mixAttInfreqPrac","","","img/orange_2bandit_b2.png","68","img/orange_2bandit_b2.png","68","prac","","","","","","","","","","","","","","","","","","","",""
"518","","612366","SARL_v6ps9ech69","msl000055","infreqPrac_resp","","","img/orange_2bandit_b.png","68","img/green_2bandit_b.png","68","prac","","","","","","","","","","","","","","","","","","","",""
"null","","612522","SARL_v6ps9ech69","msl000055","fixation","","","img/fixation.png","null","","","prac","","","","","","","","","","","","","","","","","","","",""
"472","","613000","SARL_v6ps9ech69","msl000055","mixAttInfreqPrac","","","img/orange_2bandit_b2.png","68","img/orange_2bandit_b2.png","68","prac","","","","","","","","","","","","","","","","","","","",""
"472","","613333","SARL_v6ps9ech69","msl000055","infreqPrac_resp","","","img/orange_2bandit_b.png","68","img/green_2bandit_b.png","68","prac","","","","","","","","","","","","","","","","","","","",""
"null","","613488","SARL_v6ps9ech69","msl000055","fixation","","","img/fixation.png","null","","","prac","","","","","","","","","","","","","","","","","","","",""
"338","","613831","SARL_v6ps9ech69","msl000055","mixAttInfreqPrac","","","img/orange_2bandit_b2.png","68","img/orange_2bandit_b2.png","68","prac","","","","","","","","","","","","","","","","","","","",""
"338","","614299","SARL_v6ps9ech69","msl000055","infreqPrac_resp","","","img/orange_2bandit_b.png","68","img/green_2bandit_b.png","68","prac","","","","","","","","","","","","","","","","","","","",""
"null","","614455","SARL_v6ps9ech69","msl000055","fixation","","","img/fixation.png","null","","","prac","","","","","","","","","","","","","","","","","","","",""
"477","","614937","SARL_v6ps9ech69","msl000055","mixAttFreqPrac","","","img/green_2bandit_b2.png","70","img/green_2bandit_b2.png","70","prac","","","","","","","","","","","","","","","","","","","",""
"477","","615265","SARL_v6ps9ech69","msl000055","freqPrac_resp","","","img/green_2bandit_b.png","70","img/green_2bandit_b.png","70","prac","","","","","","","","","","","","","","","","","","","",""
"null","","615420","SARL_v6ps9ech69","msl000055","fixation","","","img/fixation.png","null","","","prac","","","","","","","","","","","","","","","","","","","",""
"821","","616244","SARL_v6ps9ech69","msl000055","mixRLPractice","","","img/black_2bandit_b2.png","75","img/black_2bandit_b2.png","","prac","","","","","","","","","","","","","","","","","","","",""
"null","","617001","SARL_v6ps9ech69","msl000055","feedback","","","img/yay_R_b.png","null","","na","prac","","","","","","","","","","","","","","","","","","","",""
"null","","617806","SARL_v6ps9ech69","msl000055","mixAttFreqPrac","","","img/green_2bandit_b2.png","null","img/green_2bandit_b2.png","70","prac","","","","","","","","","","","","","","","","","","","",""
"null","","617962","SARL_v6ps9ech69","msl000055","fixation","","","img/fixation.png","null","","","prac","","","","","","","","","","","","","","","","","","","",""
"216","","618181","SARL_v6ps9ech69","msl000055","mixAttInfreqPrac","","","img/orange_2bandit_b2.png","70","img/orange_2bandit_b2.png","68","prac","","","","","","","","","","","","","","","","","","","",""
"216","","618772","SARL_v6ps9ech69","msl000055","infreqPrac_resp","","","img/orange_2bandit_b.png","70","img/green_2bandit_b.png","68","prac","","","","","","","","","","","","","","","","","","","",""
"144","","618926","SARL_v6ps9ech69","msl000055","fixation","","","img/fixation.png","68","","","prac","","","","","","","","","","","","","","","","","","","",""
"482","","619413","SARL_v6ps9ech69","msl000055","mixAttFreqPrac","","","img/green_2bandit_b2.png","70","img/green_2bandit_b2.png","70","prac","","","","","","","","","","","","","","","","","","","",""
"482","","619737","SARL_v6ps9ech69","msl000055","freqPrac_resp","","","img/green_2bandit_b.png","70","img/green_2bandit_b.png","70","prac","","","","","","","","","","","","","","","","","","","",""
"null","","619891","SARL_v6ps9ech69","msl000055","fixation","","","img/fixation.png","null","","","prac","","","","","","","","","","","","","","","","","","","",""
"449","","620346","SARL_v6ps9ech69","msl000055","mixAttFreqPrac","","","img/green_2bandit_b2.png","70","img/green_2bandit_b2.png","70","prac","","","","","","","","","","","","","","","","","","","",""
"449","","620702","SARL_v6ps9ech69","msl000055","freqPrac_resp","","","img/green_2bandit_b.png","70","img/green_2bandit_b.png","70","prac","","","","","","","","","","","","","","","","","","","",""
"null","","620858","SARL_v6ps9ech69","msl000055","fixation","","","img/fixation.png","null","","","prac","","","","","","","","","","","","","","","","","","","",""
"488","","621349","SARL_v6ps9ech69","msl000055","mixAttInfreqPrac","","","img/orange_2bandit_b2.png","68","img/orange_2bandit_b2.png","68","prac","","","","","","","","","","","","","","","","","","","",""
"488","","621667","SARL_v6ps9ech69","msl000055","infreqPrac_resp","","","img/orange_2bandit_b.png","68","img/green_2bandit_b.png","68","prac","","","","","","","","","","","","","","","","","","","",""
"null","","621822","SARL_v6ps9ech69","msl000055","fixation","","","img/fixation.png","null","","","prac","","","","","","","","","","","","","","","","","","","",""
"564","","622392","SARL_v6ps9ech69","msl000055","mixRLPractice","","","img/black_2bandit_b2.png","75","img/black_2bandit_b2.png","","prac","","","","","","","","","","","","","","","","","","","",""
"null","","623148","SARL_v6ps9ech69","msl000055","feedback","","","img/boo_R_b.png","null","","na","prac","","","","","","","","","","","","","","","","","","","",""
"27045","","650197","SARL_v6ps9ech69","msl000055","","","","","","","","prac","","","","","","","","","","","","","","","","","","","",""
"656","","650859","SARL_v6ps9ech69","msl000055","freq","","","img/green_2bandit_b2.png","70","","70","test","1","","","circle","square","1","1","1","1","1","","","","","","","","","",""
"null","","651008","SARL_v6ps9ech69","msl000055","freq_resp","","","img/green_2bandit_b.png","70","img/green_2bandit_b.png","70","test","","","","","","","","","1","","","","","","","","","","",""
"null","","651165","SARL_v6ps9ech69","msl000055","fixation","","","img/fixation.png","null","","","test","","","","","","","","","","","","","","","","","","","",""
"386","","651554","SARL_v6ps9ech69","msl000055","freq","","","img/green_2bandit_b2.png","70","","70","test","1","","","circle","square","2","2","2","1","1","","","","","","","","","",""
"null","","651975","SARL_v6ps9ech69","msl000055","freq_resp","","","img/green_2bandit_b.png","70","img/green_2bandit_b.png","70","test","","","","","","","","","1","","","","","","","","","","",""
"null","","652128","SARL_v6ps9ech69","msl000055","fixation","","","img/fixation.png","null","","","test","","","","","","","","","","","","","","","","","","","",""
"377","","652511","SARL_v6ps9ech69","msl000055","freq","","","img/green_2bandit_b2.png","70","","70","test","1","","","circle","square","3","3","3","1","1","","","","","","","","","",""
"null","","652939","SARL_v6ps9ech69","msl000055","freq_resp","","","img/green_2bandit_b.png","70","img/green_2bandit_b.png","70","test","","","","","","","","","1","","","","","","","","","","",""
"null","","653095","SARL_v6ps9ech69","msl000055","fixation","","","img/fixation.png","null","","","test","","","","","","","","","","","","","","","","","","","",""
"265","","653364","SARL_v6ps9ech69","msl000055","freq","","","img/green_2bandit_b2.png","70","","70","test","1","","","circle","square","4","4","4","1","1","","","","","","","","","",""
"null","","653904","SARL_v6ps9ech69","msl000055","freq_resp","","","img/green_2bandit_b.png","70","img/green_2bandit_b.png","70","test","","","","","","","","","1","","","","","","","","","","",""
"null","","654060","SARL_v6ps9ech69","msl000055","fixation","","","img/fixation.png","null","","","test","","","","","","","","","","","","","","","","","","","",""
"351","","654416","SARL_v6ps9ech69","msl000055","freq","","","img/green_2bandit_b2.png","70","","70","test","1","","","circle","square","5","5","5","1","1","","","","","","","","","",""
"null","","654871","SARL_v6ps9ech69","msl000055","freq_resp","","","img/green_2bandit_b.png","70","img/green_2bandit_b.png","70","test","","","","","","","","","1","","","","","","","","","","",""
"null","","655027","SARL_v6ps9ech69","msl000055","fixation","","","img/fixation.png","null","","","test","","","","","","","","","","","","","","","","","","","",""
"284","","655315","SARL_v6ps9ech69","msl000055","freq","","","img/green_2bandit_b2.png","70","","70","test","1","","","circle","square","6","6","6","1","1","","","","","","","","","",""
"null","","655837","SARL_v6ps9ech69","msl000055","freq_resp","","","img/green_2bandit_b.png","70","img/green_2bandit_b.png","70","test","","","","","","","","","1","","","","","","","","","","",""
"null","","655992","SARL_v6ps9ech69","msl000055","fixation","","","img/fixation.png","null","","","test","","","","","","","","","","","","","","","","","","","",""
"323","","656319","SARL_v6ps9ech69","msl000055","freq","","","img/green_2bandit_b2.png","70","","70","test","1","","","circle","square","7","7","7","1","1","","","","","","","","","",""
"null","","656802","SARL_v6ps9ech69","msl000055","freq_resp","","","img/green_2bandit_b.png","70","img/green_2bandit_b.png","70","test","","","","","","","","","1","","","","","","","","","","",""
"null","","656957","SARL_v6ps9ech69","msl000055","fixation","","","img/fixation.png","null","","","test","","","","","","","","","","","","","","","","","","","",""
"245","","657207","SARL_v6ps9ech69","msl000055","freq","","","img/green_2bandit_b2.png","70","","70","test","1","","","circle","square","8","8","8","1","1","","","","","","","","","",""
"null","","657768","SARL_v6ps9ech69","msl000055","freq_resp","","","img/green_2bandit_b.png","70","img/green_2bandit_b.png","70","test","","","","","","","","","1","","","","","","","","","","",""
"null","","657923","SARL_v6ps9ech69","msl000055","fixation","","","img/fixation.png","null","","","test","","","","","","","","","","","","","","","","","","","",""
"283","","658211","SARL_v6ps9ech69","msl000055","freq","","","img/green_2bandit_b2.png","70","","70","test","1","","","circle","square","9","9","9","1","1","","","","","","","","","",""
"null","","658734","SARL_v6ps9ech69","msl000055","freq_resp","","","img/green_2bandit_b.png","70","img/green_2bandit_b.png","70","test","","","","","","","","","1","","","","","","","","","","",""
"null","","658888","SARL_v6ps9ech69","msl000055","fixation","","","img/fixation.png","null","","","test","","","","","","","","","","","","","","","","","","","",""
"186","","659078","SARL_v6ps9ech69","msl000055","freq","","","img/green_2bandit_b2.png","70","","70","test","1","","","circle","square","10","10","10","1","1","","","","","","","","","",""
"null","","659698","SARL_v6ps9ech69","msl000055","freq_resp","","","img/green_2bandit_b.png","70","img/green_2bandit_b.png","70","test","","","","","","","","","1","","","","","","","","","","",""
"null","","659855","SARL_v6ps9ech69","msl000055","fixation","","","img/fixation.png","null","","","test","","","","","","","","","","","","","","","","","","","",""
"149","","660009","SARL_v6ps9ech69","msl000055","freq","","","img/green_2bandit_b2.png","70","","70","test","1","","","circle","square","11","11","11","1","1","","","","","","","","","",""
"null","","660666","SARL_v6ps9ech69","msl000055","freq_resp","","","img/green_2bandit_b.png","70","img/green_2bandit_b.png","70","test","","","","","","","","","1","","","","","","","","","","",""
"null","","660820","SARL_v6ps9ech69","msl000055","fixation","","","img/fixation.png","null","","","test","","","","","","","","","","","","","","","","","","","",""
"126","","660951","SARL_v6ps9ech69","msl000055","freq","","","img/green_2bandit_b2.png","70","","70","test","1","","","circle","square","12","12","12","1","1","","","","","","","","","",""
"null","","661631","SARL_v6ps9ech69","msl000055","freq_resp","","","img/green_2bandit_b.png","70","img/green_2bandit_b.png","70","test","","","","","","","","","1","","","","","","","","","","",""
"null","","661787","SARL_v6ps9ech69","msl000055","fixation","","","img/fixation.png","null","","","test","","","","","","","","","","","","","","","","","","","",""
"78","","661870","SARL_v6ps9ech69","msl000055","freq","","","img/green_2bandit_b2.png","70","","70","test","1","","","circle","square","13","13","13","1","1","","","","","","","","","",""
"null","","662596","SARL_v6ps9ech69","msl000055","freq_resp","","","img/green_2bandit_b.png","70","img/green_2bandit_b.png","70","test","","","","","","","","","1","","","","","","","","","","",""
"null","","662751","SARL_v6ps9ech69","msl000055","fixation","","","img/fixation.png","null","","","test","","","","","","","","","","","","","","","","","","","",""
"59","","662814","SARL_v6ps9ech69","msl000055","freq","","","img/green_2bandit_b2.png","70","","70","test","1","","","circle","square","14","14","14","1","1","","","","","","","","","",""
"null","","663561","SARL_v6ps9ech69","msl000055","freq_resp","","","img/green_2bandit_b.png","70","img/green_2bandit_b.png","70","test","","","","","","","","","1","","","","","","","","","","",""
"null","","663716","SARL_v6ps9ech69","msl000055","fixation","","","img/fixation.png","null","","","test","","","","","","","","","","","","","","","","","","","",""
"80","","663802","SARL_v6ps9ech69","msl000055","infreq","","","img/orange_2bandit_b2.png","70","","68","test","0","","","circle","square","15","15","15","1","0.9333333333333333","","","","","","","","","",""
"null","","664529","SARL_v6ps9ech69","msl000055","infreq_resp","","","img/orange_2bandit_b.png","70","img/orange_2bandit_b.png","68","test","","","","","","","","","1","","","","","","","","","","",""
"null","","664684","SARL_v6ps9ech69","msl000055","fixation","","","img/fixation.png","null","","","test","","","","","","","","","","","","","","","","","","","",""
"568","","665258","SARL_v6ps9ech69","msl000055","freq","","","img/green_2bandit_b2.png","70","","70","test","1","","","circle","square","16","16","16","1","0.9375","","","","","","","","","",""
"null","","665494","SARL_v6ps9ech69","msl000055","freq_resp","","","img/green_2bandit_b.png","70","img/green_2bandit_b.png","70","test","","","","","","","","","1","","","","","","","","","","",""
"null","","665650","SARL_v6ps9ech69","msl000055","fixation","","","img/fixation.png","null","","","test","","","","","","","","","","","","","","","","","","","",""
"445","","666101","SARL_v6ps9ech69","msl000055","infreq","","","img/orange_2bandit_b2.png","68","","68","test","1","","","circle","square","17","17","17","1","0.9411764705882353","","","","","","","","","",""
"null","","666462","SARL_v6ps9ech69","msl000055","infreq_resp","","","img/orange_2bandit_b.png","68","img/orange_2bandit_b.png","68","test","","","","","","","","","1","","","","","","","","","","",""
"null","","666616","SARL_v6ps9ech69","msl000055","fixation","","","img/fixation.png","null","","","test","","","","","","","","","","","","","","","","","","","",""
"497","","667119","SARL_v6ps9ech69","msl000055","freq","","","img/green_2bandit_b2.png","70","","70","test","1","","","circle","square","18","18","18","1","0.9444444444444444","","","","","","","","","",""
"null","","667429","SARL_v6ps9ech69","msl000055","freq_resp","","","img/green_2bandit_b.png","70","img/green_2bandit_b.png","70","test","","","","","","","","","1","","","","","","","","","","",""
"null","","667584","SARL_v6ps9ech69","msl000055","fixation","","","img/fixation.png","null","","","test","","","","","","","","","","","","","","","","","","","",""
"470","","668058","SARL_v6ps9ech69","msl000055","freq","","","img/green_2bandit_b2.png","70","","70","test","1","","","circle","square","19","19","19","1","0.9473684210526315","","","","","","","","","",""
"null","","668393","SARL_v6ps9ech69","msl000055","freq_resp","","","img/green_2bandit_b.png","70","img/green_2bandit_b.png","70","test","","","","","","","","","1","","","","","","","","","","",""
"null","","668548","SARL_v6ps9ech69","msl000055","fixation","","","img/fixation.png","null","","","test","","","","","","","","","","","","","","","","","","","",""
"339","","668892","SARL_v6ps9ech69","msl000055","freq","","","img/green_2bandit_b2.png","70","","70","test","1","","","circle","square","20","20","20","1","0.95","","","","","","","","","",""
"null","","669358","SARL_v6ps9ech69","msl000055","freq_resp","","","img/green_2bandit_b.png","70","img/green_2bandit_b.png","70","test","","","","","","","","","1","","","","","","","","","","",""
"null","","669513","SARL_v6ps9ech69","msl000055","fixation","","","img/fixation.png","null","","","test","","","","","","","","","","","","","","","","","","","",""
"283","","669802","SARL_v6ps9ech69","msl000055","freq","","","img/green_2bandit_b2.png","70","","70","test","1","","","circle","square","21","21","21","1","0.9523809523809523","","","","","","","","","",""
"null","","670324","SARL_v6ps9ech69","msl000055","freq_resp","","","img/green_2bandit_b.png","70","img/green_2bandit_b.png","70","test","","","","","","","","","1","","","","","","","","","","",""
"null","","670479","SARL_v6ps9ech69","msl000055","fixation","","","img/fixation.png","null","","","test","","","","","","","","","","","","","","","","","","","",""
"692","","671176","SARL_v6ps9ech69","msl000055","rl","","","img/black_2bandit_b2.png","75","","0","test","","","0","circle","square","22","","0","1","","75","0.8","0.2","0.5135290753362648","0.8","0.2","0.2","square","1","0"
"null","","671931","SARL_v6ps9ech69","msl000055","feedback","","","img/boo_R_b.png","null","","na","test","","","","","","","","","1","","75","0.8","0.2","","","","0.2","","1",""
"709","","672645","SARL_v6ps9ech69","msl000055","freq","","","img/green_2bandit_b2.png","70","","70","test","1","","","circle","square","23","22","1","2","0.9545454545454546","","","","","","","","","",""
"null","","672742","SARL_v6ps9ech69","msl000055","freq_resp","","","img/green_2bandit_b.png","70","img/green_2bandit_b.png","70","test","","","","","","","","","2","","","","","","","","","","",""
"null","","672898","SARL_v6ps9ech69","msl000055","fixation","","","img/fixation.png","null","","","test","","","","","","","","","","","","","","","","","","","",""
"559","","673462","SARL_v6ps9ech69","msl000055","freq","","","img/green_2bandit_b2.png","70","","70","test","1","","","circle","square","24","23","2","2","0.9565217391304348","","","","","","","","","",""
"null","","673709","SARL_v6ps9ech69","msl000055","freq_resp","","","img/green_2bandit_b.png","70","img/green_2bandit_b.png","70","test","","","","","","","","","2","","","","","","","","","","",""
"null","","673865","SARL_v6ps9ech69","msl000055","fixation","","","img/fixation.png","null","","","test","","","","","","","","","","","","","","","","","","","",""
"481","","674351","SARL_v6ps9ech69","msl000055","freq","","","img/green_2bandit_b2.png","70","","70","test","1","","","circle","square","25","24","3","2","0.9583333333333334","","","","","","","","","",""
"null","","674675","SARL_v6ps9ech69","msl000055","freq_resp","","","img/green_2bandit_b.png","70","img/green_2bandit_b.png","70","test","","","","","","","","","2","","","","","","","","","","",""
"null","","674832","SARL_v6ps9ech69","msl000055","fixation","","","img/fixation.png","null","","","test","","","","","","","","","","","","","","","","","","","",""
"308","","675143","SARL_v6ps9ech69","msl000055","freq","","","img/green_2bandit_b2.png","70","","70","test","1","","","circle","square","26","25","4","2","0.96","","","","","","","","","",""
"null","","675641","SARL_v6ps9ech69","msl000055","freq_resp","","","img/green_2bandit_b.png","70","img/green_2bandit_b.png","70","test","","","","","","","","","2","","","","","","","","","","",""
"null","","675797","SARL_v6ps9ech69","msl000055","fixation","","","img/fixation.png","null","","","test","","","","","","","","","","","","","","","","","","","",""
"305","","676107","SARL_v6ps9ech69","msl000055","freq","","","img/green_2bandit_b2.png","70","","70","test","1","","","circle","square","27","26","5","2","0.9615384615384616","","","","","","","","","",""
"null","","676608","SARL_v6ps9ech69","msl000055","freq_resp","","","img/green_2bandit_b.png","70","img/green_2bandit_b.png","70","test","","","","","","","","","2","","","","","","","","","","",""
"null","","676762","SARL_v6ps9ech69","msl000055","fixation","","","img/fixation.png","null","","","test","","","","","","","","","","","","","","","","","","","",""
"339","","677105","SARL_v6ps9ech69","msl000055","freq","","","img/green_2bandit_b2.png","70","","70","test","1","","","circle","square","28","27","6","2","0.9629629629629629","","","","","","","","","",""
"null","","677573","SARL_v6ps9ech69","msl000055","freq_resp","","","img/green_2bandit_b.png","70","img/green_2bandit_b.png","70","test","","","","","","","","","2","","","","","","","","","","",""
"null","","677728","SARL_v6ps9ech69","msl000055","fixation","","","img/fixation.png","null","","","test","","","","","","","","","","","","","","","","","","","",""
"483","","678217","SARL_v6ps9ech69","msl000055","infreq","","","img/orange_2bandit_b2.png","68","","68","test","1","","","circle","square","29","28","7","2","0.9642857142857143","","","","","","","","","",""
"null","","678540","SARL_v6ps9ech69","msl000055","infreq_resp","","","img/orange_2bandit_b.png","68","img/orange_2bandit_b.png","68","test","","","","","","","","","2","","","","","","","","","","",""
"null","","678695","SARL_v6ps9ech69","msl000055","fixation","","","img/fixation.png","null","","","test","","","","","","","","","","","","","","","","","","","",""
"564","","679264","SARL_v6ps9ech69","msl000055","freq","","","img/green_2bandit_b2.png","70","","70","test","1","","","circle","square","30","29","8","2","0.9655172413793104","","","","","","","","","",""
"null","","679504","SARL_v6ps9ech69","msl000055","freq_resp","","","img/green_2bandit_b.png","70","img/green_2bandit_b.png","70","test","","","","","","","","","2","","","","","","","","","","",""
"null","","679660","SARL_v6ps9ech69","msl000055","fixation","","","img/fixation.png","null","","","test","","","","","","","","","","","","","","","","","","","",""
"574","","680238","SARL_v6ps9ech69","msl000055","freq","","","img/green_2bandit_b2.png","70","","70","test","1","","","circle","square","31","30","9","2","0.9666666666666667","","","","","","","","","",""
"null","","680470","SARL_v6ps9ech69","msl000055","freq_resp","","","img/green_2bandit_b.png","70","img/green_2bandit_b.png","70","test","","","","","","","","","2","","","","","","","","","","",""
"null","","680625","SARL_v6ps9ech69","msl000055","fixation","","","img/fixation.png","null","","","test","","","","","","","","","","","","","","","","","","","",""
"547","","681176","SARL_v6ps9ech69","msl000055","freq","","","img/green_2bandit_b2.png","70","","70","test","1","","","circle","square","32","31","10","2","0.967741935483871","","","","","","","","","",""
"null","","681434","SARL_v6ps9ech69","msl000055","freq_resp","","","img/green_2bandit_b.png","70","img/green_2bandit_b.png","70","test","","","","","","","","","2","","","","","","","","","","",""
"null","","681589","SARL_v6ps9ech69","msl000055","fixation","","","img/fixation.png","null","","","test","","","","","","","","","","","","","","","","","","","",""
"507","","682101","SARL_v6ps9ech69","msl000055","infreq","","","img/orange_2bandit_b2.png","68","","68","test","1","","","circle","square","33","32","11","2","0.96875","","","","","","","","","",""
"null","","682399","SARL_v6ps9ech69","msl000055","infreq_resp","","","img/orange_2bandit_b.png","68","img/orange_2bandit_b.png","68","test","","","","","","","","","2","","","","","","","","","","",""
"null","","682555","SARL_v6ps9ech69","msl000055","fixation","","","img/fixation.png","null","","","test","","","","","","","","","","","","","","","","","","","",""
"760","","683320","SARL_v6ps9ech69","msl000055","freq","","","img/green_2bandit_b2.png","70","","70","test","1","","","circle","square","34","33","12","2","0.9696969696969697","","","","","","","","","",""
"null","","683365","SARL_v6ps9ech69","msl000055","freq_resp","","","img/green_2bandit_b.png","70","img/green_2bandit_b.png","70","test","","","","","","","","","2","","","","","","","","","","",""
"null","","683520","SARL_v6ps9ech69","msl000055","fixation","","","img/fixation.png","null","","","test","","","","","","","","","","","","","","","","","","","",""
"552","","684076","SARL_v6ps9ech69","msl000055","freq","","","img/green_2bandit_b2.png","70","","70","test","1","","","circle","square","35","34","13","2","0.9705882352941176","","","","","","","","","",""
"null","","684330","SARL_v6ps9ech69","msl000055","freq_resp","","","img/green_2bandit_b.png","70","img/green_2bandit_b.png","70","test","","","","","","","","","2","","","","","","","","","","",""
"null","","684485","SARL_v6ps9ech69","msl000055","fixation","","","img/fixation.png","null","","","test","","","","","","","","","","","","","","","","","","","",""
"419","","684910","SARL_v6ps9ech69","msl000055","freq","","","img/green_2bandit_b2.png","70","","70","test","1","","","circle","square","36","35","14","2","0.9714285714285714","","","","","","","","","",""
"null","","685297","SARL_v6ps9ech69","msl000055","freq_resp","","","img/green_2bandit_b.png","70","img/green_2bandit_b.png","70","test","","","","","","","","","2","","","","","","","","","","",""
"null","","685452","SARL_v6ps9ech69","msl000055","fixation","","","img/fixation.png","null","","","test","","","","","","","","","","","","","","","","","","","",""
"358","","685815","SARL_v6ps9ech69","msl000055","freq","","","img/green_2bandit_b2.png","70","","70","test","1","","","circle","square","37","36","15","2","0.9722222222222222","","","","","","","","","",""
"null","","686261","SARL_v6ps9ech69","msl000055","freq_resp","","","img/green_2bandit_b.png","70","img/green_2bandit_b.png","70","test","","","","","","","","","2","","","","","","","","","","",""
"null","","686417","SARL_v6ps9ech69","msl000055","fixation","","","img/fixation.png","null","","","test","","","","","","","","","","","","","","","","","","","",""
"290","","686713","SARL_v6ps9ech69","msl000055","freq","","","img/green_2bandit_b2.png","70","","70","test","1","","","circle","square","38","37","16","2","0.972972972972973","","","","","","","","","",""
"null","","687229","SARL_v6ps9ech69","msl000055","freq_resp","","","img/green_2bandit_b.png","70","img/green_2bandit_b.png","70","test","","","","","","","","","2","","","","","","","","","","",""
"null","","687385","SARL_v6ps9ech69","msl000055","fixation","","","img/fixation.png","null","","","test","","","","","","","","","","","","","","","","","","","",""
"275","","687665","SARL_v6ps9ech69","msl000055","freq","","","img/green_2bandit_b2.png","70","","70","test","1","","","circle","square","39","38","17","2","0.9736842105263158","","","","","","","","","",""
"null","","688195","SARL_v6ps9ech69","msl000055","freq_resp","","","img/green_2bandit_b.png","70","img/green_2bandit_b.png","70","test","","","","","","","","","2","","","","","","","","","","",""
"null","","688351","SARL_v6ps9ech69","msl000055","fixation","","","img/fixation.png","null","","","test","","","","","","","","","","","","","","","","","","","",""
"284","","688640","SARL_v6ps9ech69","msl000055","infreq","","","img/orange_2bandit_b2.png","70","","68","test","0","","","circle","square","40","39","18","2","0.9487179487179487","","","","","","","","","",""
"null","","689160","SARL_v6ps9ech69","msl000055","infreq_resp","","","img/orange_2bandit_b.png","70","img/orange_2bandit_b.png","68","test","","","","","","","","","2","","","","","","","","","","",""
"null","","689317","SARL_v6ps9ech69","msl000055","fixation","","","img/fixation.png","null","","","test","","","","","","","","","","","","","","","","","","","",""
"438","","689760","SARL_v6ps9ech69","msl000055","freq","","","img/green_2bandit_b2.png","70","","70","test","1","","","circle","square","41","40","19","2","0.95","","","","","","","","","",""
"null","","690128","SARL_v6ps9ech69","msl000055","freq_resp","","","img/green_2bandit_b.png","70","img/green_2bandit_b.png","70","test","","","","","","","","","2","","","","","","","","","","",""
"null","","690284","SARL_v6ps9ech69","msl000055","fixation","","","img/fixation.png","null","","","test","","","","","","","","","","","","","","","","","","","",""
"343","","690632","SARL_v6ps9ech69","msl000055","freq","","","img/green_2bandit_b2.png","70","","70","test","1","","","circle","square","42","41","20","2","0.9512195121951219","","","","","","","","","",""
"null","","691094","SARL_v6ps9ech69","msl000055","freq_resp","","","img/green_2bandit_b.png","70","img/green_2bandit_b.png","70","test","","","","","","","","","2","","","","","","","","","","",""
"null","","691249","SARL_v6ps9ech69","msl000055","fixation","","","img/fixation.png","null","","","test","","","","","","","","","","","","","","","","","","","",""
"291","","691545","SARL_v6ps9ech69","msl000055","freq","","","img/green_2bandit_b2.png","70","","70","test","1","","","circle","square","43","42","21","2","0.9523809523809523","","","","","","","","","",""
"null","","692061","SARL_v6ps9ech69","msl000055","freq_resp","","","img/green_2bandit_b.png","70","img/green_2bandit_b.png","70","test","","","","","","","","","2","","","","","","","","","","",""
"null","","692217","SARL_v6ps9ech69","msl000055","fixation","","","img/fixation.png","null","","","test","","","","","","","","","","","","","","","","","","","",""
"698","","692921","SARL_v6ps9ech69","msl000055","rl","","","img/black_2bandit_b2.png","74","","0","test","","","0","circle","square","44","","0","2","","74","0.8","0.2","0.9840248482037754","0.8","0.2","0.8","circle","2","0"
"null","","693675","SARL_v6ps9ech69","msl000055","feedback","","","img/boo_L_b.png","null","","na","test","","","","","","","","","2","","74","0.8","0.2","","","","0.8","","2",""
"591","","694270","SARL_v6ps9ech69","msl000055","freq","","","img/green_2bandit_b2.png","70","","70","test","1","","","circle","square","45","43","1","3","0.9534883720930233","","","","","","","","","",""
"null","","694484","SARL_v6ps9ech69","msl000055","freq_resp","","","img/green_2bandit_b.png","70","img/green_2bandit_b.png","70","test","","","","","","","","","3","","","","","","","","","","",""
"null","","694639","SARL_v6ps9ech69","msl000055","fixation","","","img/fixation.png","null","","","test","","","","","","","","","","","","","","","","","","","",""
"564","","695208","SARL_v6ps9ech69","msl000055","freq","","","img/green_2bandit_b2.png","70","","70","test","1","","","circle","square","46","44","2","3","0.9545454545454546","","","","","","","","","",""
"null","","695450","SARL_v6ps9ech69","msl000055","freq_resp","","","img/green_2bandit_b.png","70","img/green_2bandit_b.png","70","test","","","","","","","","","3","","","","","","","","","","",""
"null","","695605","SARL_v6ps9ech69","msl000055","fixation","","","img/fixation.png","null","","","test","","","","","","","","","","","","","","","","","","","",""
"419","","696028","SARL_v6ps9ech69","msl000055","freq","","","img/green_2bandit_b2.png","70","","70","test","1","","","circle","square","47","45","3","3","0.9555555555555556","","","","","","","","","",""
"null","","696415","SARL_v6ps9ech69","msl000055","freq_resp","","","img/green_2bandit_b.png","70","img/green_2bandit_b.png","70","test","","","","","","","","","3","","","","","","","","","","",""
"null","","696570","SARL_v6ps9ech69","msl000055","fixation","","","img/fixation.png","null","","","test","","","","","","","","","","","","","","","","","","","",""
"375","","696949","SARL_v6ps9ech69","msl000055","freq","","","img/green_2bandit_b2.png","70","","70","test","1","","","circle","square","48","46","4","3","0.9565217391304348","","","","","","","","","",""
"null","","697380","SARL_v6ps9ech69","msl000055","freq_resp","","","img/green_2bandit_b.png","70","img/green_2bandit_b.png","70","test","","","","","","","","","3","","","","","","","","","","",""
"null","","697537","SARL_v6ps9ech69","msl000055","fixation","","","img/fixation.png","null","","","test","","","","","","","","","","","","","","","","","","","",""
"504","","698046","SARL_v6ps9ech69","msl000055","infreq","","","img/orange_2bandit_b2.png","68","","68","test","1","","","circle","square","49","47","5","3","0.9574468085106383","","","","","","","","","",""
"null","","698347","SARL_v6ps9ech69","msl000055","infreq_resp","","","img/orange_2bandit_b.png","68","img/orange_2bandit_b.png","68","test","","","","","","","","","3","","","","","","","","","","",""
"null","","698503","SARL_v6ps9ech69","msl000055","fixation","","","img/fixation.png","null","","","test","","","","","","","","","","","","","","","","","","","",""
"466","","698974","SARL_v6ps9ech69","msl000055","freq","","","img/green_2bandit_b2.png","70","","70","test","1","","","circle","square","50","48","6","3","0.9583333333333334","","","","","","","","","",""
"null","","699314","SARL_v6ps9ech69","msl000055","freq_resp","","","img/green_2bandit_b.png","70","img/green_2bandit_b.png","70","test","","","","","","","","","3","","","","","","","","","","",""
"null","","699468","SARL_v6ps9ech69","msl000055","fixation","","","img/fixation.png","null","","","test","","","","","","","","","","","","","","","","","","","",""
"398","","699872","SARL_v6ps9ech69","msl000055","freq","","","img/green_2bandit_b2.png","70","","70","test","1","","","circle","square","51","49","7","3","0.9591836734693877","","","","","","","","","",""
"null","","700280","SARL_v6ps9ech69","msl000055","freq_resp","","","img/green_2bandit_b.png","70","img/green_2bandit_b.png","70","test","","","","","","","","","3","","","","","","","","","","",""
"null","","700436","SARL_v6ps9ech69","msl000055","fixation","","","img/fixation.png","null","","","test","","","","","","","","","","","","","","","","","","","",""
"400","","700841","SARL_v6ps9ech69","msl000055","freq","","","img/green_2bandit_b2.png","70","","70","test","1","","","circle","square","52","50","8","3","0.96","","","","","","","","","",""
"null","","701246","SARL_v6ps9ech69","msl000055","freq_resp","","","img/green_2bandit_b.png","70","img/green_2bandit_b.png","70","test","","","","","","","","","3","","","","","","","","","","",""
"null","","701402","SARL_v6ps9ech69","msl000055","fixation","","","img/fixation.png","null","","","test","","","","","","","","","","","","","","","","","","","",""
"321","","701727","SARL_v6ps9ech69","msl000055","freq","","","img/green_2bandit_b2.png","70","","70","test","1","","","circle","square","53","51","9","3","0.9607843137254902","","","","","","","","","",""
"null","","702211","SARL_v6ps9ech69","msl000055","freq_resp","","","img/green_2bandit_b.png","70","img/green_2bandit_b.png","70","test","","","","","","","","","3","","","","","","","","","","",""
"null","","702367","SARL_v6ps9ech69","msl000055","fixation","","","img/fixation.png","null","","","test","","","","","","","","","","","","","","","","","","","",""
"316","","702688","SARL_v6ps9ech69","msl000055","freq","","","img/green_2bandit_b2.png","70","","70","test","1","","","circle","square","54","52","10","3","0.9615384615384616","","","","","","","","","",""
"null","","703177","SARL_v6ps9ech69","msl000055","freq_resp","","","img/green_2bandit_b.png","70","img/green_2bandit_b.png","70","test","","","","","","","","","3","","","","","","","","","","",""
"null","","703332","SARL_v6ps9ech69","msl000055","fixation","","","img/fixation.png","null","","","test","","","","","","","","","","","","","","","","","","","",""
"299","","703637","SARL_v6ps9ech69","msl000055","freq","","","img/green_2bandit_b2.png","70","","70","test","1","","","circle","square","55","53","11","3","0.9622641509433962","","","","","","","","","",""
"null","","704144","SARL_v6ps9ech69","msl000055","freq_resp","","","img/green_2bandit_b.png","70","img/green_2bandit_b.png","70","test","","","","","","","","","3","","","","","","","","","","",""
"null","","704298","SARL_v6ps9ech69","msl000055","fixation","","","img/fixation.png","null","","","test","","","","","","","","","","","","","","","","","","","",""
"315","","704619","SARL_v6ps9ech69","msl000055","freq","","","img/green_2bandit_b2.png","70","","70","test","1","","","circle","square","56","54","12","3","0.9629629629629629","","","","","","","","","",""
"null","","705109","SARL_v6ps9ech69","msl000055","freq_resp","","","img/green_2bandit_b.png","70","img/green_2bandit_b.png","70","test","","","","","","","","","3","","","","","","","","","","",""
"null","","705266","SARL_v6ps9ech69","msl000055","fixation","","","img/fixation.png","null","","","test","","","","","","","","","","","","","","","","","","","",""
"342","","705612","SARL_v6ps9ech69","msl000055","freq","","","img/green_2bandit_b2.png","70","","70","test","1","","","circle","square","57","55","13","3","0.9636363636363636","","","","","","","","","",""
"null","","706075","SARL_v6ps9ech69","msl000055","freq_resp","","","img/green_2bandit_b.png","70","img/green_2bandit_b.png","70","test","","","","","","","","","3","","","","","","","","","","",""
"null","","706231","SARL_v6ps9ech69","msl000055","fixation","","","img/fixation.png","null","","","test","","","","","","","","","","","","","","","","","","","",""
"336","","706572","SARL_v6ps9ech69","msl000055","freq","","","img/green_2bandit_b2.png","70","","70","test","1","","","circle","square","58","56","14","3","0.9642857142857143","","","","","","","","","",""
"null","","707041","SARL_v6ps9ech69","msl000055","freq_resp","","","img/green_2bandit_b.png","70","img/green_2bandit_b.png","70","test","","","","","","","","","3","","","","","","","","","","",""
"null","","707196","SARL_v6ps9ech69","msl000055","fixation","","","img/fixation.png","null","","","test","","","","","","","","","","","","","","","","","","","",""
"449","","707649","SARL_v6ps9ech69","msl000055","infreq","","","img/orange_2bandit_b2.png","68","","68","test","1","","","circle","square","59","57","15","3","0.9649122807017544","","","","","","","","","",""
"null","","708006","SARL_v6ps9ech69","msl000055","infreq_resp","","","img/orange_2bandit_b.png","68","img/orange_2bandit_b.png","68","test","","","","","","","","","3","","","","","","","","","","",""
"null","","708161","SARL_v6ps9ech69","msl000055","fixation","","","img/fixation.png","null","","","test","","","","","","","","","","","","","","","","","","","",""
"430","","708596","SARL_v6ps9ech69","msl000055","freq","","","img/green_2bandit_b2.png","70","","70","test","1","","","circle","square","60","58","16","3","0.9655172413793104","","","","","","","","","",""
"null","","708972","SARL_v6ps9ech69","msl000055","freq_resp","","","img/green_2bandit_b.png","70","img/green_2bandit_b.png","70","test","","","","","","","","","3","","","","","","","","","","",""
"null","","709128","SARL_v6ps9ech69","msl000055","fixation","","","img/fixation.png","null","","","test","","","","","","","","","","","","","","","","","","","",""
"437","","709568","SARL_v6ps9ech69","msl000055","freq","","","img/green_2bandit_b2.png","70","","70","test","1","","","circle","square","61","59","17","3","0.9661016949152542","","","","","","","","","",""
"null","","709937","SARL_v6ps9ech69","msl000055","freq_resp","","","img/green_2bandit_b.png","70","img/green_2bandit_b.png","70","test","","","","","","","","","3","","","","","","","","","","",""
"null","","710091","SARL_v6ps9ech69","msl000055","fixation","","","img/fixation.png","null","","","test","","","","","","","","","","","","","","","","","","","",""
"424","","710521","SARL_v6ps9ech69","msl000055","freq","","","img/green_2bandit_b2.png","70","","70","test","1","","","circle","square","62","60","18","3","0.9666666666666667","","","","","","","","","",""
"null","","710902","SARL_v6ps9ech69","msl000055","freq_resp","","","img/green_2bandit_b.png","70","img/green_2bandit_b.png","70","test","","","","","","","","","3","","","","","","","","","","",""
"null","","711058","SARL_v6ps9ech69","msl000055","fixation","","","img/fixation.png","null","","","test","","","","","","","","","","","","","","","","","","","",""
"363","","711425","SARL_v6ps9ech69","msl000055","freq","","","img/green_2bandit_b2.png","70","","70","test","1","","","circle","square","63","61","19","3","0.9672131147540983","","","","","","","","","",""
"null","","711868","SARL_v6ps9ech69","msl000055","freq_resp","","","img/green_2bandit_b.png","70","img/green_2bandit_b.png","70","test","","","","","","","","","3","","","","","","","","","","",""
"null","","712024","SARL_v6ps9ech69","msl000055","fixation","","","img/fixation.png","null","","","test","","","","","","","","","","","","","","","","","","","",""
"333","","712363","SARL_v6ps9ech69","msl000055","freq","","","img/green_2bandit_b2.png","70","","70","test","1","","","circle","square","64","62","20","3","0.967741935483871","","","","","","","","","",""
"null","","712836","SARL_v6ps9ech69","msl000055","freq_resp","","","img/green_2bandit_b.png","70","img/green_2bandit_b.png","70","test","","","","","","","","","3","","","","","","","","","","",""
"null","","712991","SARL_v6ps9ech69","msl000055","fixation","","","img/fixation.png","null","","","test","","","","","","","","","","","","","","","","","","","",""
"null","","713796","SARL_v6ps9ech69","msl000055","infreq","","","img/orange_2bandit_b2.png","null","","68","test","0","","","circle","square","65","63","21","3","0.9523809523809523","","","","","","","","","",""
"null","","713952","SARL_v6ps9ech69","msl000055","fixation","","","img/fixation.png","null","","","test","","","","","","","","","","","","","","","","","","","",""
"583","","714539","SARL_v6ps9ech69","msl000055","freq","","","img/green_2bandit_b2.png","70","","70","test","1","","","circle","square","66","64","22","3","0.953125","","","","","","","","","",""
"null","","714762","SARL_v6ps9ech69","msl000055","freq_resp","","","img/green_2bandit_b.png","70","img/green_2bandit_b.png","70","test","","","","","","","","","3","","","","","","","","","","",""
"null","","714917","SARL_v6ps9ech69","msl000055","fixation","","","img/fixation.png","null","","","test","","","","","","","","","","","","","","","","","","","",""
"457","","715380","SARL_v6ps9ech69","msl000055","freq","","","img/green_2bandit_b2.png","70","","70","test","1","","","circle","square","67","65","23","3","0.9538461538461539","","","","","","","","","",""
"null","","715729","SARL_v6ps9ech69","msl000055","freq_resp","","","img/green_2bandit_b.png","70","img/green_2bandit_b.png","70","test","","","","","","","","","3","","","","","","","","","","",""
"null","","715884","SARL_v6ps9ech69","msl000055","fixation","","","img/fixation.png","null","","","test","","","","","","","","","","","","","","","","","","","",""
"384","","716273","SARL_v6ps9ech69","msl000055","freq","","","img/green_2bandit_b2.png","70","","70","test","1","","","circle","square","68","66","24","3","0.9545454545454546","","","","","","","","","",""
"null","","716694","SARL_v6ps9ech69","msl000055","freq_resp","","","img/green_2bandit_b.png","70","img/green_2bandit_b.png","70","test","","","","","","","","","3","","","","","","","","","","",""
"null","","716849","SARL_v6ps9ech69","msl000055","fixation","","","img/fixation.png","null","","","test","","","","","","","","","","","","","","","","","","","",""
"337","","717191","SARL_v6ps9ech69","msl000055","freq","","","img/green_2bandit_b2.png","70","","70","test","1","","","circle","square","69","67","25","3","0.9552238805970149","","","","","","","","","",""
"null","","717659","SARL_v6ps9ech69","msl000055","freq_resp","","","img/green_2bandit_b.png","70","img/green_2bandit_b.png","70","test","","","","","","","","","3","","","","","","","","","","",""
"null","","717814","SARL_v6ps9ech69","msl000055","fixation","","","img/fixation.png","null","","","test","","","","","","","","","","","","","","","","","","","",""
"294","","718113","SARL_v6ps9ech69","msl000055","freq","","","img/green_2bandit_b2.png","70","","70","test","1","","","circle","square","70","68","26","3","0.9558823529411765","","","","","","","","","",""
"null","","718624","SARL_v6ps9ech69","msl000055","freq_resp","","","img/green_2bandit_b.png","70","img/green_2bandit_b.png","70","test","","","","","","","","","3","","","","","","","","","","",""
"null","","718779","SARL_v6ps9ech69","msl000055","fixation","","","img/fixation.png","null","","","test","","","","","","","","","","","","","","","","","","","",""
"702","","719486","SARL_v6ps9ech69","msl000055","rl","","","img/black_2bandit_b2.png","75","","0","test","","","0","circle","square","71","","0","3","","75","0.8","0.2","0.45170447333050046","0.8","0.2","0.2","square","3","0"
"null","","720242","SARL_v6ps9ech69","msl000055","feedback","","","img/boo_R_b.png","null","","na","test","","","","","","","","","3","","75","0.8","0.2","","","","0.2","","3",""
"626","","720875","SARL_v6ps9ech69","msl000055","freq","","","img/green_2bandit_b2.png","70","","70","test","1","","","circle","square","72","69","1","4","0.9565217391304348","","","","","","","","","",""
"null","","721053","SARL_v6ps9ech69","msl000055","freq_resp","","","img/green_2bandit_b.png","70","img/green_2bandit_b.png","70","test","","","","","","","","","4","","","","","","","","","","",""
"null","","721209","SARL_v6ps9ech69","msl000055","fixation","","","img/fixation.png","null","","","test","","","","","","","","","","","","","","","","","","","",""
"440","","721652","SARL_v6ps9ech69","msl000055","freq","","","img/green_2bandit_b2.png","70","","70","test","1","","","circle","square","73","70","2","4","0.9571428571428572","","","","","","","","","",""
"null","","722018","SARL_v6ps9ech69","msl000055","freq_resp","","","img/green_2bandit_b.png","70","img/green_2bandit_b.png","70","test","","","","","","","","","4","","","","","","","","","","",""
"null","","722173","SARL_v6ps9ech69","msl000055","fixation","","","img/fixation.png","null","","","test","","","","","","","","","","","","","","","","","","","",""
"347","","722526","SARL_v6ps9ech69","msl000055","freq","","","img/green_2bandit_b2.png","70","","70","test","1","","","circle","square","74","71","3","4","0.9577464788732394","","","","","","","","","",""
"null","","722983","SARL_v6ps9ech69","msl000055","freq_resp","","","img/green_2bandit_b.png","70","img/green_2bandit_b.png","70","test","","","","","","","","","4","","","","","","","","","","",""
"null","","723139","SARL_v6ps9ech69","msl000055","fixation","","","img/fixation.png","null","","","test","","","","","","","","","","","","","","","","","","","",""
"295","","723438","SARL_v6ps9ech69","msl000055","freq","","","img/green_2bandit_b2.png","70","","70","test","1","","","circle","square","75","72","4","4","0.9583333333333334","","","","","","","","","",""
"null","","723950","SARL_v6ps9ech69","msl000055","freq_resp","","","img/green_2bandit_b.png","70","img/green_2bandit_b.png","70","test","","","","","","","","","4","","","","","","","","","","",""
"null","","724104","SARL_v6ps9ech69","msl000055","fixation","","","img/fixation.png","null","","","test","","","","","","","","","","","","","","","","","","","",""
"285","","724393","SARL_v6ps9ech69","msl000055","freq","","","img/green_2bandit_b2.png","70","","70","test","1","","","circle","square","76","73","5","4","0.958904109589041","","","","","","","","","",""
"null","","724913","SARL_v6ps9ech69","msl000055","freq_resp","","","img/green_2bandit_b.png","70","img/green_2bandit_b.png","70","test","","","","","","","","","4","","","","","","","","","","",""
"null","","725069","SARL_v6ps9ech69","msl000055","fixation","","","img/fixation.png","null","","","test","","","","","","","","","","","","","","","","","","","",""
"177","","725251","SARL_v6ps9ech69","msl000055","freq","","","img/green_2bandit_b2.png","70","","70","test","1","","","circle","square","77","74","6","4","0.9594594594594594","","","","","","","","","",""
"null","","725879","SARL_v6ps9ech69","msl000055","freq_resp","","","img/green_2bandit_b.png","70","img/green_2bandit_b.png","70","test","","","","","","","","","4","","","","","","","","","","",""
"null","","726035","SARL_v6ps9ech69","msl000055","fixation","","","img/fixation.png","null","","","test","","","","","","","","","","","","","","","","","","","",""
"123","","726166","SARL_v6ps9ech69","msl000055","freq","","","img/green_2bandit_b2.png","70","","70","test","1","","","circle","square","78","75","7","4","0.96","","","","","","","","","",""
"null","","726847","SARL_v6ps9ech69","msl000055","freq_resp","","","img/green_2bandit_b.png","70","img/green_2bandit_b.png","70","test","","","","","","","","","4","","","","","","","","","","",""
"null","","727003","SARL_v6ps9ech69","msl000055","fixation","","","img/fixation.png","null","","","test","","","","","","","","","","","","","","","","","","","",""
"136","","727143","SARL_v6ps9ech69","msl000055","freq","","","img/green_2bandit_b2.png","70","","70","test","1","","","circle","square","79","76","8","4","0.9605263157894737","","","","","","","","","",""
"null","","727813","SARL_v6ps9ech69","msl000055","freq_resp","","","img/green_2bandit_b.png","70","img/green_2bandit_b.png","70","test","","","","","","","","","4","","","","","","","","","","",""
"null","","727969","SARL_v6ps9ech69","msl000055","fixation","","","img/fixation.png","null","","","test","","","","","","","","","","","","","","","","","","","",""
"144","","728117","SARL_v6ps9ech69","msl000055","freq","","","img/green_2bandit_b2.png","70","","70","test","1","","","circle","square","80","77","9","4","0.961038961038961","","","","","","","","","",""
"null","","728778","SARL_v6ps9ech69","msl000055","freq_resp","","","img/green_2bandit_b.png","70","img/green_2bandit_b.png","70","test","","","","","","","","","4","","","","","","","","","","",""
"null","","728933","SARL_v6ps9ech69","msl000055","fixation","","","img/fixation.png","null","","","test","","","","","","","","","","","","","","","","","","","",""
"304","","729242","SARL_v6ps9ech69","msl000055","freq","","","img/green_2bandit_b2.png","70","","70","test","1","","","circle","square","81","78","10","4","0.9615384615384616","","","","","","","","","",""
"null","","729745","SARL_v6ps9ech69","msl000055","freq_resp","","","img/green_2bandit_b.png","70","img/green_2bandit_b.png","70","test","","","","","","","","","4","","","","","","","","","","",""
"null","","729901","SARL_v6ps9ech69","msl000055","fixation","","","img/fixation.png","null","","","test","","","","","","","","","","","","","","","","","","","",""
"254","","730158","SARL_v6ps9ech69","msl000055","freq","","","img/green_2bandit_b2.png","70","","70","test","1","","","circle","square","82","79","11","4","0.9620253164556962","","","","","","","","","",""
"null","","730709","SARL_v6ps9ech69","msl000055","freq_resp","","","img/green_2bandit_b.png","70","img/green_2bandit_b.png","70","test","","","","","","","","","4","","","","","","","","","","",""
"null","","730865","SARL_v6ps9ech69","msl000055","fixation","","","img/fixation.png","null","","","test","","","","","","","","","","","","","","","","","","","",""
"133","","731002","SARL_v6ps9ech69","msl000055","infreq","","","img/orange_2bandit_b2.png","70","","68","test","0","","","circle","square","83","80","12","4","0.95","","","","","","","","","",""
"null","","731674","SARL_v6ps9ech69","msl000055","infreq_resp","","","img/orange_2bandit_b.png","70","img/orange_2bandit_b.png","68","test","","","","","","","","","4","","","","","","","","","","",""
"null","","731829","SARL_v6ps9ech69","msl000055","fixation","","","img/fixation.png","null","","","test","","","","","","","","","","","","","","","","","","","",""
"11","","731844","SARL_v6ps9ech69","msl000055","freq","","","img/green_2bandit_b2.png","68","","70","test","0","","","circle","square","84","81","13","4","0.9382716049382716","","","","","","","","","",""
"null","","732638","SARL_v6ps9ech69","msl000055","freq_resp","","","img/green_2bandit_b.png","68","img/green_2bandit_b.png","70","test","","","","","","","","","4","","","","","","","","","","",""
"null","","732794","SARL_v6ps9ech69","msl000055","fixation","","","img/fixation.png","null","","","test","","","","","","","","","","","","","","","","","","","",""
"574","","733372","SARL_v6ps9ech69","msl000055","freq","","","img/green_2bandit_b2.png","70","","70","test","1","","","circle","square","85","82","14","4","0.9390243902439024","","","","","","","","","",""
"null","","733605","SARL_v6ps9ech69","msl000055","freq_resp","","","img/green_2bandit_b.png","70","img/green_2bandit_b.png","70","test","","","","","","","","","4","","","","","","","","","","",""
"null","","733760","SARL_v6ps9ech69","msl000055","fixation","","","img/fixation.png","null","","","test","","","","","","","","","","","","","","","","","","","",""
"620","","734385","SARL_v6ps9ech69","msl000055","freq","","","img/green_2bandit_b2.png","70","","70","test","1","","","circle","square","86","83","15","4","0.9397590361445783","","","","","","","","","",""
"null","","734571","SARL_v6ps9ech69","msl000055","freq_resp","","","img/green_2bandit_b.png","70","img/green_2bandit_b.png","70","test","","","","","","","","","4","","","","","","","","","","",""
"null","","734726","SARL_v6ps9ech69","msl000055","fixation","","","img/fixation.png","null","","","test","","","","","","","","","","","","","","","","","","","",""
"546","","735277","SARL_v6ps9ech69","msl000055","freq","","","img/green_2bandit_b2.png","70","","70","test","1","","","circle","square","87","84","16","4","0.9404761904761905","","","","","","","","","",""
"null","","735536","SARL_v6ps9ech69","msl000055","freq_resp","","","img/green_2bandit_b.png","70","img/green_2bandit_b.png","70","test","","","","","","","","","4","","","","","","","","","","",""
"null","","735692","SARL_v6ps9ech69","msl000055","fixation","","","img/fixation.png","null","","","test","","","","","","","","","","","","","","","","","","","",""
"465","","736162","SARL_v6ps9ech69","msl000055","freq","","","img/green_2bandit_b2.png","70","","70","test","1","","","circle","square","88","85","17","4","0.9411764705882353","","","","","","","","","",""
"null","","736502","SARL_v6ps9ech69","msl000055","freq_resp","","","img/green_2bandit_b.png","70","img/green_2bandit_b.png","70","test","","","","","","","","","4","","","","","","","","","","",""
"null","","736657","SARL_v6ps9ech69","msl000055","fixation","","","img/fixation.png","null","","","test","","","","","","","","","","","","","","","","","","","",""
"408","","737069","SARL_v6ps9ech69","msl000055","freq","","","img/green_2bandit_b2.png","70","","70","test","1","","","circle","square","89","86","18","4","0.9418604651162791","","","","","","","","","",""
"null","","737466","SARL_v6ps9ech69","msl000055","freq_resp","","","img/green_2bandit_b.png","70","img/green_2bandit_b.png","70","test","","","","","","","","","4","","","","","","","","","","",""
"null","","737622","SARL_v6ps9ech69","msl000055","fixation","","","img/fixation.png","null","","","test","","","","","","","","","","","","","","","","","","","",""
"607","","738233","SARL_v6ps9ech69","msl000055","infreq","","","img/orange_2bandit_b2.png","68","","68","test","1","","","circle","square","90","87","19","4","0.9425287356321839","","","","","","","","","",""
"null","","738432","SARL_v6ps9ech69","msl000055","infreq_resp","","","img/orange_2bandit_b.png","68","img/orange_2bandit_b.png","68","test","","","","","","","","","4","","","","","","","","","","",""
"null","","738587","SARL_v6ps9ech69","msl000055","fixation","","","img/fixation.png","null","","","test","","","","","","","","","","","","","","","","","","","",""
"529","","739121","SARL_v6ps9ech69","msl000055","freq","","","img/green_2bandit_b2.png","70","","70","test","1","","","circle","square","91","88","20","4","0.9431818181818182","","","","","","","","","",""
"null","","739398","SARL_v6ps9ech69","msl000055","freq_resp","","","img/green_2bandit_b.png","70","img/green_2bandit_b.png","70","test","","","","","","","","","4","","","","","","","","","","",""
"null","","739553","SARL_v6ps9ech69","msl000055","fixation","","","img/fixation.png","null","","","test","","","","","","","","","","","","","","","","","","","",""
"509","","740066","SARL_v6ps9ech69","msl000055","freq","","","img/green_2bandit_b2.png","70","","70","test","1","","","circle","square","92","89","21","4","0.9438202247191011","","","","","","","","","",""
"null","","740362","SARL_v6ps9ech69","msl000055","freq_resp","","","img/green_2bandit_b.png","70","img/green_2bandit_b.png","70","test","","","","","","","","","4","","","","","","","","","","",""
"null","","740518","SARL_v6ps9ech69","msl000055","fixation","","","img/fixation.png","null","","","test","","","","","","","","","","","","","","","","","","","",""
"480","","741004","SARL_v6ps9ech69","msl000055","freq","","","img/green_2bandit_b2.png","70","","70","test","1","","","circle","square","93","90","22","4","0.9444444444444444","","","","","","","","","",""
"null","","741330","SARL_v6ps9ech69","msl000055","freq_resp","","","img/green_2bandit_b.png","70","img/green_2bandit_b.png","70","test","","","","","","","","","4","","","","","","","","","","",""
"null","","741486","SARL_v6ps9ech69","msl000055","fixation","","","img/fixation.png","null","","","test","","","","","","","","","","","","","","","","","","","",""
"368","","741858","SARL_v6ps9ech69","msl000055","freq","","","img/green_2bandit_b2.png","70","","70","test","1","","","circle","square","94","91","23","4","0.945054945054945","","","","","","","","","",""
"null","","742296","SARL_v6ps9ech69","msl000055","freq_resp","","","img/green_2bandit_b.png","70","img/green_2bandit_b.png","70","test","","","","","","","","","4","","","","","","","","","","",""
"null","","742451","SARL_v6ps9ech69","msl000055","fixation","","","img/fixation.png","null","","","test","","","","","","","","","","","","","","","","","","","",""
"354","","742811","SARL_v6ps9ech69","msl000055","freq","","","img/green_2bandit_b2.png","70","","70","test","1","","","circle","square","95","92","24","4","0.9456521739130435","","","","","","","","","",""
"null","","743263","SARL_v6ps9ech69","msl000055","freq_resp","","","img/green_2bandit_b.png","70","img/green_2bandit_b.png","70","test","","","","","","","","","4","","","","","","","","","","",""
"null","","743419","SARL_v6ps9ech69","msl000055","fixation","","","img/fixation.png","null","","","test","","","","","","","","","","","","","","","","","","","",""
"316","","743739","SARL_v6ps9ech69","msl000055","freq","","","img/green_2bandit_b2.png","70","","70","test","1","","","circle","square","96","93","25","4","0.946236559139785","","","","","","","","","",""
"null","","744229","SARL_v6ps9ech69","msl000055","freq_resp","","","img/green_2bandit_b.png","70","img/green_2bandit_b.png","70","test","","","","","","","","","4","","","","","","","","","","",""
"null","","744384","SARL_v6ps9ech69","msl000055","fixation","","","img/fixation.png","null","","","test","","","","","","","","","","","","","","","","","","","",""
"313","","744704","SARL_v6ps9ech69","msl000055","freq","","","img/green_2bandit_b2.png","70","","70","test","1","","","circle","square","97","94","26","4","0.9468085106382979","","","","","","","","","",""
"null","","745197","SARL_v6ps9ech69","msl000055","freq_resp","","","img/green_2bandit_b.png","70","img/green_2bandit_b.png","70","test","","","","","","","","","4","","","","","","","","","","",""
"null","","745352","SARL_v6ps9ech69","msl000055","fixation","","","img/fixation.png","null","","","test","","","","","","","","","","","","","","","","","","","",""
"1069","","746426","SARL_v6ps9ech69","msl000055","rl","","","img/black_2bandit_b2.png","75","","0","test","","","1","circle","square","98","","0","4","","75","0.8","0.2","0.15798061832381372","0.8","0.2","0.2","square","4","0"
"null","","747182","SARL_v6ps9ech69","msl000055","feedback","","","img/yay_R_b.png","null","","na","test","","","","","","","","","4","","75","0.8","0.2","","","","0.2","","4",""
"null","","747988","SARL_v6ps9ech69","msl000055","freq","","","img/green_2bandit_b2.png","null","","70","test","0","","","circle","square","99","95","1","5","0.9368421052631579","","","","","","","","","",""
"null","","748143","SARL_v6ps9ech69","msl000055","fixation","","","img/fixation.png","null","","","test","","","","","","","","","","","","","","","","","","","",""
"772","","748920","SARL_v6ps9ech69","msl000055","freq","","","img/green_2bandit_b2.png","70","","70","test","1","","","circle","square","100","96","2","5","0.9375","","","","","","","","","",""
"null","","748953","SARL_v6ps9ech69","msl000055","freq_resp","","","img/green_2bandit_b.png","70","img/green_2bandit_b.png","70","test","","","","","","","","","5","","","","","","","","","","",""
"null","","749109","SARL_v6ps9ech69","msl000055","fixation","","","img/fixation.png","null","","","test","","","","","","","","","","","","","","","","","","","",""
"799","","749912","SARL_v6ps9ech69","msl000055","freq","","","img/green_2bandit_b2.png","70","","70","test","1","","","circle","square","101","97","3","5","0.9381443298969072","","","","","","","","","",""
"null","","749918","SARL_v6ps9ech69","msl000055","freq_resp","","","img/green_2bandit_b.png","70","img/green_2bandit_b.png","70","test","","","","","","","","","5","","","","","","","","","","",""
"null","","750073","SARL_v6ps9ech69","msl000055","fixation","","","img/fixation.png","null","","","test","","","","","","","","","","","","","","","","","","","",""
"629","","750706","SARL_v6ps9ech69","msl000055","freq","","","img/green_2bandit_b2.png","70","","70","test","1","","","circle","square","102","98","4","5","0.9387755102040817","","","","","","","","","",""
"null","","750882","SARL_v6ps9ech69","msl000055","freq_resp","","","img/green_2bandit_b.png","70","img/green_2bandit_b.png","70","test","","","","","","","","","5","","","","","","","","","","",""
"null","","751038","SARL_v6ps9ech69","msl000055","fixation","","","img/fixation.png","null","","","test","","","","","","","","","","","","","","","","","","","",""
"500","","751544","SARL_v6ps9ech69","msl000055","freq","","","img/green_2bandit_b2.png","70","","70","test","1","","","circle","square","103","99","5","5","0.9393939393939394","","","","","","","","","",""
"null","","751850","SARL_v6ps9ech69","msl000055","freq_resp","","","img/green_2bandit_b.png","70","img/green_2bandit_b.png","70","test","","","","","","","","","5","","","","","","","","","","",""
"null","","752005","SARL_v6ps9ech69","msl000055","fixation","","","img/fixation.png","null","","","test","","","","","","","","","","","","","","","","","","","",""
"379","","752388","SARL_v6ps9ech69","msl000055","freq","","","img/green_2bandit_b2.png","70","","70","test","1","","","circle","square","104","100","6","5","0.94","","","","","","","","","",""
"null","","752815","SARL_v6ps9ech69","msl000055","freq_resp","","","img/green_2bandit_b.png","70","img/green_2bandit_b.png","70","test","","","","","","","","","5","","","","","","","","","","",""
"null","","752970","SARL_v6ps9ech69","msl000055","fixation","","","img/fixation.png","null","","","test","","","","","","","","","","","","","","","","","","","",""
"310","","753286","SARL_v6ps9ech69","msl000055","freq","","","img/green_2bandit_b2.png","70","","70","test","1","","","circle","square","105","101","7","5","0.9405940594059405","","","","","","","","","",""
"null","","753781","SARL_v6ps9ech69","msl000055","freq_resp","","","img/green_2bandit_b.png","70","img/green_2bandit_b.png","70","test","","","","","","","","","5","","","","","","","","","","",""
"null","","753938","SARL_v6ps9ech69","msl000055","fixation","","","img/fixation.png","null","","","test","","","","","","","","","","","","","","","","","","","",""
"329","","754271","SARL_v6ps9ech69","msl000055","freq","","","img/green_2bandit_b2.png","70","","70","test","1","","","circle","square","106","102","8","5","0.9411764705882353","","","","","","","","","",""
"null","","754747","SARL_v6ps9ech69","msl000055","freq_resp","","","img/green_2bandit_b.png","70","img/green_2bandit_b.png","70","test","","","","","","","","","5","","","","","","","","","","",""
"null","","754903","SARL_v6ps9ech69","msl000055","fixation","","","img/fixation.png","null","","","test","","","","","","","","","","","","","","","","","","","",""
"372","","755280","SARL_v6ps9ech69","msl000055","freq","","","img/green_2bandit_b2.png","70","","70","test","1","","","circle","square","107","103","9","5","0.941747572815534","","","","","","","","","",""
"null","","755713","SARL_v6ps9ech69","msl000055","freq_resp","","","img/green_2bandit_b.png","70","img/green_2bandit_b.png","70","test","","","","","","","","","5","","","","","","","","","","",""
"null","","755869","SARL_v6ps9ech69","msl000055","fixation","","","img/fixation.png","null","","","test","","","","","","","","","","","","","","","","","","","",""
"358","","756232","SARL_v6ps9ech69","msl000055","freq","","","img/green_2bandit_b2.png","70","","70","test","1","","","circle","square","108","104","10","5","0.9423076923076923","","","","","","","","","",""
"null","","756679","SARL_v6ps9ech69","msl000055","freq_resp","","","img/green_2bandit_b.png","70","img/green_2bandit_b.png","70","test","","","","","","","","","5","","","","","","","","","","",""
"null","","756835","SARL_v6ps9ech69","msl000055","fixation","","","img/fixation.png","null","","","test","","","","","","","","","","","","","","","","","","","",""
"418","","757257","SARL_v6ps9ech69","msl000055","infreq","","","img/orange_2bandit_b2.png","68","","68","test","1","","","circle","square","109","105","11","5","0.9428571428571428","","","","","","","","","",""
"null","","757644","SARL_v6ps9ech69","msl000055","infreq_resp","","","img/orange_2bandit_b.png","68","img/orange_2bandit_b.png","68","test","","","","","","","","","5","","","","","","","","","","",""
"null","","757800","SARL_v6ps9ech69","msl000055","fixation","","","img/fixation.png","null","","","test","","","","","","","","","","","","","","","","","","","",""
"373","","758176","SARL_v6ps9ech69","msl000055","freq","","","img/green_2bandit_b2.png","70","","70","test","1","","","circle","square","110","106","12","5","0.9433962264150944","","","","","","","","","",""
"null","","758609","SARL_v6ps9ech69","msl000055","freq_resp","","","img/green_2bandit_b.png","70","img/green_2bandit_b.png","70","test","","","","","","","","","5","","","","","","","","","","",""
"null","","758765","SARL_v6ps9ech69","msl000055","fixation","","","img/fixation.png","null","","","test","","","","","","","","","","","","","","","","","","","",""
"277","","759048","SARL_v6ps9ech69","msl000055","freq","","","img/green_2bandit_b2.png","70","","70","test","1","","","circle","square","111","107","13","5","0.9439252336448598","","","","","","","","","",""
"null","","759576","SARL_v6ps9ech69","msl000055","freq_resp","","","img/green_2bandit_b.png","70","img/green_2bandit_b.png","70","test","","","","","","","","","5","","","","","","","","","","",""
"null","","759731","SARL_v6ps9ech69","msl000055","fixation","","","img/fixation.png","null","","","test","","","","","","","","","","","","","","","","","","","",""
"170","","759908","SARL_v6ps9ech69","msl000055","freq","","","img/green_2bandit_b2.png","70","","70","test","1","","","circle","square","112","108","14","5","0.9444444444444444","","","","","","","","","",""
"null","","760543","SARL_v6ps9ech69","msl000055","freq_resp","","","img/green_2bandit_b.png","70","img/green_2bandit_b.png","70","test","","","","","","","","","5","","","","","","","","","","",""
"null","","760698","SARL_v6ps9ech69","msl000055","fixation","","","img/fixation.png","null","","","test","","","","","","","","","","","","","","","","","","","",""
"106","","760809","SARL_v6ps9ech69","msl000055","freq","","","img/green_2bandit_b2.png","70","","70","test","1","","","circle","square","113","109","15","5","0.944954128440367","","","","","","","","","",""
"null","","761508","SARL_v6ps9ech69","msl000055","freq_resp","","","img/green_2bandit_b.png","70","img/green_2bandit_b.png","70","test","","","","","","","","","5","","","","","","","","","","",""
"null","","761664","SARL_v6ps9ech69","msl000055","fixation","","","img/fixation.png","null","","","test","","","","","","","","","","","","","","","","","","","",""
"115","","761783","SARL_v6ps9ech69","msl000055","freq","","","img/green_2bandit_b2.png","70","","70","test","1","","","circle","square","114","110","16","5","0.9454545454545454","","","","","","","","","",""
"null","","762474","SARL_v6ps9ech69","msl000055","freq_resp","","","img/green_2bandit_b.png","70","img/green_2bandit_b.png","70","test","","","","","","","","","5","","","","","","","","","","",""
"null","","762630","SARL_v6ps9ech69","msl000055","fixation","","","img/fixation.png","null","","","test","","","","","","","","","","","","","","","","","","","",""
"193","","762827","SARL_v6ps9ech69","msl000055","freq","","","img/green_2bandit_b2.png","70","","70","test","1","","","circle","square","115","111","17","5","0.9459459459459459","","","","","","","","","",""
"null","","763440","SARL_v6ps9ech69","msl000055","freq_resp","","","img/green_2bandit_b.png","70","img/green_2bandit_b.png","70","test","","","","","","","","","5","","","","","","","","","","",""
"null","","763595","SARL_v6ps9ech69","msl000055","fixation","","","img/fixation.png","null","","","test","","","","","","","","","","","","","","","","","","","",""
"306","","763905","SARL_v6ps9ech69","msl000055","freq","","","img/green_2bandit_b2.png","70","","70","test","1","","","circle","square","116","112","18","5","0.9464285714285714","","","","","","","","","",""
"null","","764405","SARL_v6ps9ech69","msl000055","freq_resp","","","img/green_2bandit_b.png","70","img/green_2bandit_b.png","70","test","","","","","","","","","5","","","","","","","","","","",""
"null","","764560","SARL_v6ps9ech69","msl000055","fixation","","","img/fixation.png","null","","","test","","","","","","","","","","","","","","","","","","","",""
"300","","764865","SARL_v6ps9ech69","msl000055","freq","","","img/green_2bandit_b2.png","70","","70","test","1","","","circle","square","117","113","19","5","0.9469026548672567","","","","","","","","","",""
"null","","765370","SARL_v6ps9ech69","msl000055","freq_resp","","","img/green_2bandit_b.png","70","img/green_2bandit_b.png","70","test","","","","","","","","","5","","","","","","","","","","",""
"null","","765526","SARL_v6ps9ech69","msl000055","fixation","","","img/fixation.png","null","","","test","","","","","","","","","","","","","","","","","","","",""
"339","","765869","SARL_v6ps9ech69","msl000055","infreq","","","img/orange_2bandit_b2.png","70","","68","test","0","","","circle","square","118","114","20","5","0.9385964912280702","","","","","","","","","",""
"null","","766336","SARL_v6ps9ech69","msl000055","infreq_resp","","","img/orange_2bandit_b.png","70","img/orange_2bandit_b.png","68","test","","","","","","","","","5","","","","","","","","","","",""
"null","","766491","SARL_v6ps9ech69","msl000055","fixation","","","img/fixation.png","null","","","test","","","","","","","","","","","","","","","","","","","",""
"380","","766877","SARL_v6ps9ech69","msl000055","freq","","","img/green_2bandit_b2.png","70","","70","test","1","","","circle","square","119","115","21","5","0.9391304347826087","","","","","","","","","",""
"null","","767302","SARL_v6ps9ech69","msl000055","freq_resp","","","img/green_2bandit_b.png","70","img/green_2bandit_b.png","70","test","","","","","","","","","5","","","","","","","","","","",""
"null","","767456","SARL_v6ps9ech69","msl000055","fixation","","","img/fixation.png","null","","","test","","","","","","","","","","","","","","","","","","","",""
"324","","767786","SARL_v6ps9ech69","msl000055","freq","","","img/green_2bandit_b2.png","70","","70","test","1","","","circle","square","120","116","22","5","0.9396551724137931","","","","","","","","","",""
"null","","768268","SARL_v6ps9ech69","msl000055","freq_resp","","","img/green_2bandit_b.png","70","img/green_2bandit_b.png","70","test","","","","","","","","","5","","","","","","","","","","",""
"null","","768425","SARL_v6ps9ech69","msl000055","fixation","","","img/fixation.png","null","","","test","","","","","","","","","","","","","","","","","","","",""
"285","","768715","SARL_v6ps9ech69","msl000055","freq","","","img/green_2bandit_b2.png","70","","70","test","1","","","circle","square","121","117","23","5","0.9401709401709402","","","","","","","","","",""
"null","","769235","SARL_v6ps9ech69","msl000055","freq_resp","","","img/green_2bandit_b.png","70","img/green_2bandit_b.png","70","test","","","","","","","","","5","","","","","","","","","","",""
"null","","769391","SARL_v6ps9ech69","msl000055","fixation","","","img/fixation.png","null","","","test","","","","","","","","","","","","","","","","","","","",""
"518","","769914","SARL_v6ps9ech69","msl000055","rl","","","img/black_2bandit_b2.png","75","","0","test","","","0","circle","square","122","","0","5","","75","0.8","0.2","0.9563272754944449","0.8","0.2","0.2","square","5","0"
"null","","770669","SARL_v6ps9ech69","msl000055","feedback","","","img/boo_R_b.png","null","","na","test","","","","","","","","","5","","75","0.8","0.2","","","","0.2","","5",""
"379","","771052","SARL_v6ps9ech69","msl000055","freq","","","img/green_2bandit_b2.png","70","","70","test","1","","","circle","square","123","118","1","6","0.940677966101695","","","","","","","","","",""
"null","","771480","SARL_v6ps9ech69","msl000055","freq_resp","","","img/green_2bandit_b.png","70","img/green_2bandit_b.png","70","test","","","","","","","","","6","","","","","","","","","","",""
"null","","771636","SARL_v6ps9ech69","msl000055","fixation","","","img/fixation.png","null","","","test","","","","","","","","","","","","","","","","","","","",""
"745","","772385","SARL_v6ps9ech69","msl000055","infreq","","","img/orange_2bandit_b2.png","68","","68","test","1","","","circle","square","124","119","2","6","0.9411764705882353","","","","","","","","","",""
"null","","772445","SARL_v6ps9ech69","msl000055","infreq_resp","","","img/orange_2bandit_b.png","68","img/orange_2bandit_b.png","68","test","","","","","","","","","6","","","","","","","","","","",""
"null","","772601","SARL_v6ps9ech69","msl000055","fixation","","","img/fixation.png","null","","","test","","","","","","","","","","","","","","","","","","","",""
"516","","773121","SARL_v6ps9ech69","msl000055","freq","","","img/green_2bandit_b2.png","70","","70","test","1","","","circle","square","125","120","3","6","0.9416666666666667","","","","","","","","","",""
"null","","773412","SARL_v6ps9ech69","msl000055","freq_resp","","","img/green_2bandit_b.png","70","img/green_2bandit_b.png","70","test","","","","","","","","","6","","","","","","","","","","",""
"null","","773567","SARL_v6ps9ech69","msl000055","fixation","","","img/fixation.png","null","","","test","","","","","","","","","","","","","","","","","","","",""
"397","","773969","SARL_v6ps9ech69","msl000055","freq","","","img/green_2bandit_b2.png","70","","70","test","1","","","circle","square","126","121","4","6","0.9421487603305785","","","","","","","","","",""
"null","","774377","SARL_v6ps9ech69","msl000055","freq_resp","","","img/green_2bandit_b.png","70","img/green_2bandit_b.png","70","test","","","","","","","","","6","","","","","","","","","","",""
"null","","774532","SARL_v6ps9ech69","msl000055","fixation","","","img/fixation.png","null","","","test","","","","","","","","","","","","","","","","","","","",""
"276","","774814","SARL_v6ps9ech69","msl000055","freq","","","img/green_2bandit_b2.png","70","","70","test","1","","","circle","square","127","122","5","6","0.9426229508196722","","","","","","","","","",""
"null","","775343","SARL_v6ps9ech69","msl000055","freq_resp","","","img/green_2bandit_b.png","70","img/green_2bandit_b.png","70","test","","","","","","","","","6","","","","","","","","","","",""
"null","","775498","SARL_v6ps9ech69","msl000055","fixation","","","img/fixation.png","null","","","test","","","","","","","","","","","","","","","","","","","",""
"141","","775644","SARL_v6ps9ech69","msl000055","freq","","","img/green_2bandit_b2.png","70","","70","test","1","","","circle","square","128","123","6","6","0.943089430894309","","","","","","","","","",""
"null","","776309","SARL_v6ps9ech69","msl000055","freq_resp","","","img/green_2bandit_b.png","70","img/green_2bandit_b.png","70","test","","","","","","","","","6","","","","","","","","","","",""
"null","","776464","SARL_v6ps9ech69","msl000055","fixation","","","img/fixation.png","null","","","test","","","","","","","","","","","","","","","","","","","",""
"139","","776609","SARL_v6ps9ech69","msl000055","freq","","","img/green_2bandit_b2.png","70","","70","test","1","","","circle","square","129","124","7","6","0.9435483870967742","","","","","","","","","",""
"null","","777274","SARL_v6ps9ech69","msl000055","freq_resp","","","img/green_2bandit_b.png","70","img/green_2bandit_b.png","70","test","","","","","","","","","6","","","","","","","","","","",""
"null","","777430","SARL_v6ps9ech69","msl000055","fixation","","","img/fixation.png","null","","","test","","","","","","","","","","","","","","","","","","","",""
"93","","777529","SARL_v6ps9ech69","msl000055","freq","","","img/green_2bandit_b2.png","70","","70","test","1","","","circle","square","130","125","8","6","0.944","","","","","","","","","",""
"null","","778241","SARL_v6ps9ech69","msl000055","freq_resp","","","img/green_2bandit_b.png","70","img/green_2bandit_b.png","70","test","","","","","","","","","6","","","","","","","","","","",""
"null","","778397","SARL_v6ps9ech69","msl000055","fixation","","","img/fixation.png","null","","","test","","","","","","","","","","","","","","","","","","","",""
"121","","778523","SARL_v6ps9ech69","msl000055","freq","","","img/green_2bandit_b2.png","70","","70","test","1","","","circle","square","131","126","9","6","0.9444444444444444","","","","","","","","","",""
"null","","779208","SARL_v6ps9ech69","msl000055","freq_resp","","","img/green_2bandit_b.png","70","img/green_2bandit_b.png","70","test","","","","","","","","","6","","","","","","","","","","",""
"null","","779363","SARL_v6ps9ech69","msl000055","fixation","","","img/fixation.png","null","","","test","","","","","","","","","","","","","","","","","","","",""
"128","","779496","SARL_v6ps9ech69","msl000055","freq","","","img/green_2bandit_b2.png","70","","70","test","1","","","circle","square","132","127","10","6","0.9448818897637795","","","","","","","","","",""
"null","","780174","SARL_v6ps9ech69","msl000055","freq_resp","","","img/green_2bandit_b.png","70","img/green_2bandit_b.png","70","test","","","","","","","","","6","","","","","","","","","","",""
"null","","780329","SARL_v6ps9ech69","msl000055","fixation","","","img/fixation.png","null","","","test","","","","","","","","","","","","","","","","","","","",""
"160","","780494","SARL_v6ps9ech69","msl000055","freq","","","img/green_2bandit_b2.png","70","","70","test","1","","","circle","square","133","128","11","6","0.9453125","","","","","","","","","",""
"null","","781140","SARL_v6ps9ech69","msl000055","freq_resp","","","img/green_2bandit_b.png","70","img/green_2bandit_b.png","70","test","","","","","","","","","6","","","","","","","","","","",""
"null","","781295","SARL_v6ps9ech69","msl000055","fixation","","","img/fixation.png","null","","","test","","","","","","","","","","","","","","","","","","","",""
"248","","781549","SARL_v6ps9ech69","msl000055","freq","","","img/green_2bandit_b2.png","70","","70","test","1","","","circle","square","134","129","12","6","0.9457364341085271","","","","","","","","","",""
"null","","782106","SARL_v6ps9ech69","msl000055","freq_resp","","","img/green_2bandit_b.png","70","img/green_2bandit_b.png","70","test","","","","","","","","","6","","","","","","","","","","",""
"null","","782261","SARL_v6ps9ech69","msl000055","fixation","","","img/fixation.png","null","","","test","","","","","","","","","","","","","","","","","","","",""
"426","","782692","SARL_v6ps9ech69","msl000055","infreq","","","img/orange_2bandit_b2.png","68","","68","test","1","","","circle","square","135","130","13","6","0.9461538461538461","","","","","","","","","",""
"null","","783072","SARL_v6ps9ech69","msl000055","infreq_resp","","","img/orange_2bandit_b.png","68","img/orange_2bandit_b.png","68","test","","","","","","","","","6","","","","","","","","","","",""
"null","","783228","SARL_v6ps9ech69","msl000055","fixation","","","img/fixation.png","null","","","test","","","","","","","","","","","","","","","","","","","",""
"363","","783597","SARL_v6ps9ech69","msl000055","freq","","","img/green_2bandit_b2.png","70","","70","test","1","","","circle","square","136","131","14","6","0.9465648854961832","","","","","","","","","",""
"null","","784039","SARL_v6ps9ech69","msl000055","freq_resp","","","img/green_2bandit_b.png","70","img/green_2bandit_b.png","70","test","","","","","","","","","6","","","","","","","","","","",""
"null","","784195","SARL_v6ps9ech69","msl000055","fixation","","","img/fixation.png","null","","","test","","","","","","","","","","","","","","","","","","","",""
"286","","784485","SARL_v6ps9ech69","msl000055","freq","","","img/green_2bandit_b2.png","70","","70","test","1","","","circle","square","137","132","15","6","0.946969696969697","","","","","","","","","",""
"null","","785005","SARL_v6ps9ech69","msl000055","freq_resp","","","img/green_2bandit_b.png","70","img/green_2bandit_b.png","70","test","","","","","","","","","6","","","","","","","","","","",""
"null","","785160","SARL_v6ps9ech69","msl000055","fixation","","","img/fixation.png","null","","","test","","","","","","","","","","","","","","","","","","","",""
"248","","785414","SARL_v6ps9ech69","msl000055","freq","","","img/green_2bandit_b2.png","70","","70","test","1","","","circle","square","138","133","16","6","0.9473684210526315","","","","","","","","","",""
"null","","785971","SARL_v6ps9ech69","msl000055","freq_resp","","","img/green_2bandit_b.png","70","img/green_2bandit_b.png","70","test","","","","","","","","","6","","","","","","","","","","",""
"null","","786127","SARL_v6ps9ech69","msl000055","fixation","","","img/fixation.png","null","","","test","","","","","","","","","","","","","","","","","","","",""
"269","","786400","SARL_v6ps9ech69","msl000055","freq","","","img/green_2bandit_b2.png","70","","70","test","1","","","circle","square","139","134","17","6","0.9477611940298507","","","","","","","","","",""
"null","","786936","SARL_v6ps9ech69","msl000055","freq_resp","","","img/green_2bandit_b.png","70","img/green_2bandit_b.png","70","test","","","","","","","","","6","","","","","","","","","","",""
"null","","787092","SARL_v6ps9ech69","msl000055","fixation","","","img/fixation.png","null","","","test","","","","","","","","","","","","","","","","","","","",""
"254","","787351","SARL_v6ps9ech69","msl000055","freq","","","img/green_2bandit_b2.png","70","","70","test","1","","","circle","square","140","135","18","6","0.9481481481481482","","","","","","","","","",""
"null","","787902","SARL_v6ps9ech69","msl000055","freq_resp","","","img/green_2bandit_b.png","70","img/green_2bandit_b.png","70","test","","","","","","","","","6","","","","","","","","","","",""
"null","","788058","SARL_v6ps9ech69","msl000055","fixation","","","img/fixation.png","null","","","test","","","","","","","","","","","","","","","","","","","",""
"295","","788357","SARL_v6ps9ech69","msl000055","freq","","","img/green_2bandit_b2.png","70","","70","test","1","","","circle","square","141","136","19","6","0.9485294117647058","","","","","","","","","",""
"null","","788868","SARL_v6ps9ech69","msl000055","freq_resp","","","img/green_2bandit_b.png","70","img/green_2bandit_b.png","70","test","","","","","","","","","6","","","","","","","","","","",""
"null","","789024","SARL_v6ps9ech69","msl000055","fixation","","","img/fixation.png","null","","","test","","","","","","","","","","","","","","","","","","","",""
"393","","789423","SARL_v6ps9ech69","msl000055","infreq","","","img/orange_2bandit_b2.png","68","","68","test","1","","","circle","square","142","137","20","6","0.948905109489051","","","","","","","","","",""
"null","","789835","SARL_v6ps9ech69","msl000055","infreq_resp","","","img/orange_2bandit_b.png","68","img/orange_2bandit_b.png","68","test","","","","","","","","","6","","","","","","","","","","",""
"null","","789991","SARL_v6ps9ech69","msl000055","fixation","","","img/fixation.png","null","","","test","","","","","","","","","","","","","","","","","","","",""
"378","","790373","SARL_v6ps9ech69","msl000055","freq","","","img/green_2bandit_b2.png","70","","70","test","1","","","circle","square","143","138","21","6","0.9492753623188406","","","","","","","","","",""
"null","","790801","SARL_v6ps9ech69","msl000055","freq_resp","","","img/green_2bandit_b.png","70","img/green_2bandit_b.png","70","test","","","","","","","","","6","","","","","","","","","","",""
"null","","790956","SARL_v6ps9ech69","msl000055","fixation","","","img/fixation.png","null","","","test","","","","","","","","","","","","","","","","","","","",""
"298","","791259","SARL_v6ps9ech69","msl000055","freq","","","img/green_2bandit_b2.png","70","","70","test","1","","","circle","square","144","139","22","6","0.9496402877697842","","","","","","","","","",""
"null","","791766","SARL_v6ps9ech69","msl000055","freq_resp","","","img/green_2bandit_b.png","70","img/green_2bandit_b.png","70","test","","","","","","","","","6","","","","","","","","","","",""
"null","","791922","SARL_v6ps9ech69","msl000055","fixation","","","img/fixation.png","null","","","test","","","","","","","","","","","","","","","","","","","",""
"282","","792210","SARL_v6ps9ech69","msl000055","freq","","","img/green_2bandit_b2.png","70","","70","test","1","","","circle","square","145","140","23","6","0.95","","","","","","","","","",""
"null","","792733","SARL_v6ps9ech69","msl000055","freq_resp","","","img/green_2bandit_b.png","70","img/green_2bandit_b.png","70","test","","","","","","","","","6","","","","","","","","","","",""
"null","","792889","SARL_v6ps9ech69","msl000055","fixation","","","img/fixation.png","null","","","test","","","","","","","","","","","","","","","","","","","",""
"318","","793211","SARL_v6ps9ech69","msl000055","freq","","","img/green_2bandit_b2.png","70","","70","test","1","","","circle","square","146","141","24","6","0.950354609929078","","","","","","","","","",""
"null","","793700","SARL_v6ps9ech69","msl000055","freq_resp","","","img/green_2bandit_b.png","70","img/green_2bandit_b.png","70","test","","","","","","","","","6","","","","","","","","","","",""
"null","","793854","SARL_v6ps9ech69","msl000055","fixation","","","img/fixation.png","null","","","test","","","","","","","","","","","","","","","","","","","",""
"246","","794105","SARL_v6ps9ech69","msl000055","freq","","","img/green_2bandit_b2.png","70","","70","test","1","","","circle","square","147","142","25","6","0.9507042253521126","","","","","","","","","",""
"null","","794664","SARL_v6ps9ech69","msl000055","freq_resp","","","img/green_2bandit_b.png","70","img/green_2bandit_b.png","70","test","","","","","","","","","6","","","","","","","","","","",""
"null","","794820","SARL_v6ps9ech69","msl000055","fixation","","","img/fixation.png","null","","","test","","","","","","","","","","","","","","","","","","","",""
"274","","795099","SARL_v6ps9ech69","msl000055","freq","","","img/green_2bandit_b2.png","70","","70","test","1","","","circle","square","148","143","26","6","0.951048951048951","","","","","","","","","",""
"null","","795631","SARL_v6ps9ech69","msl000055","freq_resp","","","img/green_2bandit_b.png","70","img/green_2bandit_b.png","70","test","","","","","","","","","6","","","","","","","","","","",""
"null","","795786","SARL_v6ps9ech69","msl000055","fixation","","","img/fixation.png","null","","","test","","","","","","","","","","","","","","","","","","","",""
"156","","795947","SARL_v6ps9ech69","msl000055","freq","","","img/green_2bandit_b2.png","70","","70","test","1","","","circle","square","149","144","27","6","0.9513888888888888","","","","","","","","","",""
"null","","796596","SARL_v6ps9ech69","msl000055","freq_resp","","","img/green_2bandit_b.png","70","img/green_2bandit_b.png","70","test","","","","","","","","","6","","","","","","","","","","",""
"null","","796752","SARL_v6ps9ech69","msl000055","fixation","","","img/fixation.png","null","","","test","","","","","","","","","","","","","","","","","","","",""
